_id,gameID,iterationName,version,recruitmentPlatform,eventType,rt,responses,question_order,trial_type,trial_index,time_elapsed,internal_node_id,startTime,endTime,response_json
634764dd3739580fbd191514,4379-b7e9b8e9-b090-4959-9e60-0fe62af38780,pilot_10,VLAT_GGR,prolific,survey,14129,"{""participantSex"":""Do Not Wish To Say"",""participantEd"":""Bachelor's degree"",""judgedDifficulty"":""1"",""participantEffort"":""I tried my best on each question"",""technicalDifficultiesBinary"":""No""}","[0,1,2,3,4]",survey-multi-choice,72,262754,0.0-71.0,,,
634764e13739580fbd191515,4379-b7e9b8e9-b090-4959-9e60-0fe62af38780,pilot_10,VLAT_GGR,prolific,survey,4340,"{""participantEd_math"":["" None""]}",[0],survey-multi-select,73,267105,0.0-72.0,,,
634764fe3739580fbd191516,4379-b7e9b8e9-b090-4959-9e60-0fe62af38780,pilot_10,VLAT_GGR,prolific,survey,28453,,,survey-text,74,295568,0.0-73.0,267664.09999999404,296116.799999997,"{""TechnicalDifficultiesFreeResp"":""HANNAH"",""participantAge"":"""",""participantYears"":"""",""participantEd_field"":""c"",""participantComments"":""HANNAH ""}"
634c4bdca0ba013433eb0957,2621-d6efbc40-8656-4ba0-8033-101ba6624555,pilot_10,VLAT_GGR,prolific,survey,20348,"{""participantSex"":""Female"",""participantEd"":""High school graduate, diploma or equivalent"",""judgedDifficulty"":""2"",""participantEffort"":""I tried my best on each question"",""technicalDifficultiesBinary"":""No""}","[0,1,2,3,4]",survey-multi-choice,71,1283220,0.0-71.0,,,
634c4be3a0ba013433eb0958,2621-d6efbc40-8656-4ba0-8033-101ba6624555,pilot_10,VLAT_GGR,prolific,survey,7042,"{""participantEd_math"":["" Algebra"","" Statistics""]}",[0],survey-multi-select,72,1290295,0.0-72.0,,,
634c4befa0ba013433eb095c,2621-d6efbc40-8656-4ba0-8033-101ba6624555,pilot_10,VLAT_GGR,prolific,survey,11174,,,survey-text,73,1301494,0.0-73.0,1292941.899999857,1304116.2000000477,"{""TechnicalDifficultiesFreeResp"":"""",""participantAge"":""1997"",""participantYears"":""25"",""participantEd_field"":"""",""participantComments"":""""}"
634c4cc0a0ba013433eb09a5,7428-cdf86d38-fe6a-4349-8061-203e51dfc55c,pilot_10,VLAT_GGR,prolific,survey,14857,"{""participantSex"":""Female"",""participantEd"":""Master's degree"",""judgedDifficulty"":""4"",""participantEffort"":""I tried my best on each question"",""technicalDifficultiesBinary"":""No""}","[0,1,2,3,4]",survey-multi-choice,71,1370393,0.0-71.0,,,
634c4cc8a0ba013433eb09aa,7428-cdf86d38-fe6a-4349-8061-203e51dfc55c,pilot_10,VLAT_GGR,prolific,survey,8074,"{""participantEd_math"":["" Algebra"","" Statistics""]}",[0],survey-multi-select,72,1378484,0.0-72.0,,,
634c4cefa0ba013433eb09bc,7428-cdf86d38-fe6a-4349-8061-203e51dfc55c,pilot_10,VLAT_GGR,prolific,survey,38262,,,survey-text,73,1416763,0.0-73.0,1380804.5999999978,1419066.5999999978,"{""TechnicalDifficultiesFreeResp"":"""",""participantAge"":""1998"",""participantYears"":""24"",""participantEd_field"":""information science"",""participantComments"":""I hope I did these right. I think I did well. Got a bit hard to process graph after graph, but it was fun, thank you!""}"
634c4d59a0ba013433eb09eb,5620-117a7d01-5196-4348-923e-6a23aeab7245,pilot_10,VLAT_GGR,prolific,survey,15690,"{""participantSex"":""Female"",""participantEd"":""Master's degree"",""judgedDifficulty"":""3"",""participantEffort"":""I tried my best on each question"",""technicalDifficultiesBinary"":""No""}","[0,1,2,3,4]",survey-multi-choice,71,1338747,0.0-71.0,,,
634c4d60a0ba013433eb09ee,5620-117a7d01-5196-4348-923e-6a23aeab7245,pilot_10,VLAT_GGR,prolific,survey,6348,"{""participantEd_math"":["" Algebra"","" Statistics""]}",[0],survey-multi-select,72,1345106,0.0-72.0,,,
634c4d75a0ba013433eb09fa,5620-117a7d01-5196-4348-923e-6a23aeab7245,pilot_10,VLAT_GGR,prolific,survey,21070,,,survey-text,73,1366191,0.0-73.0,1347455.800000012,1368526.100000009,"{""TechnicalDifficultiesFreeResp"":"""",""participantAge"":""1986"",""participantYears"":""36"",""participantEd_field"":""dietetics"",""participantComments"":""""}"
634c4e06a0ba013433eb0a36,5493-6bdbf095-9770-4bcf-9b9a-2fc9d0844829,pilot_10,VLAT_GGR,prolific,survey,15205,"{""participantSex"":""Male"",""participantEd"":""Bachelor's degree"",""judgedDifficulty"":""2"",""participantEffort"":""I tried my best on each question"",""technicalDifficultiesBinary"":""No""}","[0,1,2,3,4]",survey-multi-choice,71,1416006,0.0-71.0,,,
634c4e0da0ba013433eb0a3a,5493-6bdbf095-9770-4bcf-9b9a-2fc9d0844829,pilot_10,VLAT_GGR,prolific,survey,7089,"{""participantEd_math"":["" Algebra"","" Calculus"","" Statistics""]}",[0],survey-multi-select,72,1423102,0.0-72.0,,,
634c4e24a0ba013433eb0a4b,5493-6bdbf095-9770-4bcf-9b9a-2fc9d0844829,pilot_10,VLAT_GGR,prolific,survey,23102,,,survey-text,73,1446215,0.0-73.0,1425487.0,1448588.900000006,"{""TechnicalDifficultiesFreeResp"":""worked well in opera gx browser"",""participantAge"":""1993"",""participantYears"":""29"",""participantEd_field"":""IT"",""participantComments"":""""}"
634c50a5a0ba013433eb0bef,0401-266250c7-3867-458e-a4a0-28e8e08caca6,pilot_10,VLAT_GGR,prolific,survey,8126,"{""participantSex"":""Male"",""participantEd"":""Associate degree"",""judgedDifficulty"":""2"",""participantEffort"":""I tried my best on each question"",""technicalDifficultiesBinary"":""No""}","[0,1,2,3,4]",survey-multi-choice,74,1067780,0.0-71.0,,,
634c50ada0ba013433eb0bf6,0401-266250c7-3867-458e-a4a0-28e8e08caca6,pilot_10,VLAT_GGR,prolific,survey,8337,"{""participantEd_math"":["" Algebra"","" Statistics""]}",[0],survey-multi-select,75,1076120,0.0-72.0,,,
634c50c5a0ba013433eb0c06,0401-266250c7-3867-458e-a4a0-28e8e08caca6,pilot_10,VLAT_GGR,prolific,survey,23504,,,survey-text,76,1099631,0.0-73.0,1078465.5,1101969.0,"{""TechnicalDifficultiesFreeResp"":"""",""participantAge"":""1973"",""participantYears"":""48"",""participantEd_field"":""Accounting"",""participantComments"":""""}"
634c50e4a0ba013433eb0c18,2039-333b30f1-c2db-4cb1-9a17-edcb3abd3461,pilot_10,VLAT_GGR,prolific,survey,13546,"{""participantSex"":""Female"",""participantEd"":""High school graduate, diploma or equivalent"",""judgedDifficulty"":""2"",""participantEffort"":""I tried my best on each question"",""technicalDifficultiesBinary"":""No""}","[0,1,2,3,4]",survey-multi-choice,72,1425740,0.0-71.0,,,
634c50e8a0ba013433eb0c1e,2039-333b30f1-c2db-4cb1-9a17-edcb3abd3461,pilot_10,VLAT_GGR,prolific,survey,4821,"{""participantEd_math"":["" Algebra"","" Statistics""]}",[0],survey-multi-select,73,1430568,0.0-72.0,,,
634c50f7a0ba013433eb0c2a,2039-333b30f1-c2db-4cb1-9a17-edcb3abd3461,pilot_10,VLAT_GGR,prolific,survey,14293,,,survey-text,74,1444869,0.0-73.0,1432494.1999999993,1446787.1999999993,"{""TechnicalDifficultiesFreeResp"":"""",""participantAge"":""1996"",""participantYears"":""26"",""participantEd_field"":""English Literature. Education"",""participantComments"":""""}"
634c5102a0ba013433eb0c35,7704-50a59b4f-f26a-43b1-8381-ddba8b9fde3e,pilot_10,VLAT_GGR,prolific,survey,19133,"{""participantSex"":""Female"",""participantEd"":""Bachelor's degree"",""judgedDifficulty"":""4"",""participantEffort"":""I tried my best on each question"",""technicalDifficultiesBinary"":""No""}","[0,1,2,3,4]",survey-multi-choice,71,1688664,0.0-71.0,,,
634c5108a0ba013433eb0c3b,7704-50a59b4f-f26a-43b1-8381-ddba8b9fde3e,pilot_10,VLAT_GGR,prolific,survey,6013,"{""participantEd_math"":["" Statistics""]}",[0],survey-multi-select,72,1694687,0.0-72.0,,,
634c5119a0ba013433eb0c45,0858-63d541d3-ff19-4fb0-b905-b25a8ec64cec,pilot_10,VLAT_GGR,prolific,survey,28160,"{""participantSex"":""Male"",""participantEd"":""High school graduate, diploma or equivalent"",""judgedDifficulty"":""3"",""participantEffort"":""I tried my best on each question"",""technicalDifficultiesBinary"":""No""}","[0,1,2,3,4]",survey-multi-choice,71,1290845,0.0-71.0,,,
634c511fa0ba013433eb0c49,0858-63d541d3-ff19-4fb0-b905-b25a8ec64cec,pilot_10,VLAT_GGR,prolific,survey,5662,"{""participantEd_math"":["" Algebra""]}",[0],survey-multi-select,72,1296511,0.0-72.0,,,
634c5121a0ba013433eb0c4b,7704-50a59b4f-f26a-43b1-8381-ddba8b9fde3e,pilot_10,VLAT_GGR,prolific,survey,24885,,,survey-text,73,1719588,0.0-73.0,1696426.0,1721311.0,"{""TechnicalDifficultiesFreeResp"":"""",""participantAge"":""1994"",""participantYears"":""28"",""participantEd_field"":""Child Development"",""participantComments"":""This was a lot of fun, good luck on your study!""}"
634c5123a0ba013433eb0c4e,9676-b6585bc5-2172-4bbd-8e77-26de9f70f1e7,pilot_10,VLAT_GGR,prolific,survey,19004,"{""participantSex"":""Female"",""participantEd"":""Bachelor's degree"",""judgedDifficulty"":""4"",""participantEffort"":""I tried my best on each question"",""technicalDifficultiesBinary"":""No""}","[0,1,2,3,4]",survey-multi-choice,71,1379283,0.0-71.0,,,
634c512ba0ba013433eb0c53,9676-b6585bc5-2172-4bbd-8e77-26de9f70f1e7,pilot_10,VLAT_GGR,prolific,survey,7449,"{""participantEd_math"":["" Algebra"","" Statistics""]}",[0],survey-multi-select,72,1386743,0.0-72.0,,,
634c512ea0ba013433eb0c55,0858-63d541d3-ff19-4fb0-b905-b25a8ec64cec,pilot_10,VLAT_GGR,prolific,survey,15210,,,survey-text,73,1311724,0.0-73.0,1298684.0,1313893.700000003,"{""TechnicalDifficultiesFreeResp"":"""",""participantAge"":""1996"",""participantYears"":""25"",""participantEd_field"":"""",""participantComments"":""""}"
634c5159a0ba013433eb0c73,9676-b6585bc5-2172-4bbd-8e77-26de9f70f1e7,pilot_10,VLAT_GGR,prolific,survey,45630,,,survey-text,73,1432382,0.0-73.0,1390351.0,1435980.699999988,"{""TechnicalDifficultiesFreeResp"":""I did not have any technical difficulties"",""participantAge"":""1996"",""participantYears"":""26"",""participantEd_field"":""Social Studies Education"",""participantComments"":""It was great!""}"
634c52f9a0ba013433eb0da8,8165-9b7a564f-03d4-4b05-885d-54a444cb4c24,pilot_10,VLAT_GGR,prolific,survey,24525,"{""participantSex"":""Female"",""participantEd"":""Associate degree"",""judgedDifficulty"":""5"",""participantEffort"":""I tried my best on each question"",""technicalDifficultiesBinary"":""No""}","[0,1,2,3,4]",survey-multi-choice,71,1692904,0.0-71.0,,,
634c5303a0ba013433eb0daf,8165-9b7a564f-03d4-4b05-885d-54a444cb4c24,pilot_10,VLAT_GGR,prolific,survey,9509,"{""participantEd_math"":["" Algebra"","" Statistics""]}",[0],survey-multi-select,72,1702429,0.0-72.0,,,
634c5324a0ba013433eb0dc5,9190-6543fd97-82df-4771-b524-1089d09eaa82,pilot_10,VLAT_GGR,prolific,survey,17573,"{""participantSex"":""Female"",""participantEd"":""Bachelor's degree"",""judgedDifficulty"":""2"",""participantEffort"":""I tried my best on each question"",""technicalDifficultiesBinary"":""No""}","[0,1,2,3,4]",survey-multi-choice,71,1915527,0.0-71.0,,,
634c5331a0ba013433eb0dcf,8165-9b7a564f-03d4-4b05-885d-54a444cb4c24,pilot_10,VLAT_GGR,prolific,survey,46394,,,survey-text,73,1748843,0.0-73.0,1704770.2000000477,1751164.5,"{""TechnicalDifficultiesFreeResp"":"""",""participantAge"":""1997"",""participantYears"":""25"",""participantEd_field"":""Pre-Nursing"",""participantComments"":""I am very bad at math.""}"
634c533aa0ba013433eb0dd3,9190-6543fd97-82df-4771-b524-1089d09eaa82,pilot_10,VLAT_GGR,prolific,survey,21890,"{""participantEd_math"":["" Statistics""]}",[0],survey-multi-select,72,1937441,0.0-72.0,,,
634c5351a0ba013433eb0de9,3413-2702134d-db2e-489d-a9a9-5b8694a9d089,pilot_10,VLAT_GGR,prolific,survey,11095,"{""participantSex"":""Male"",""participantEd"":""Bachelor's degree"",""judgedDifficulty"":""3"",""participantEffort"":""I tried my best on each question"",""technicalDifficultiesBinary"":""No""}","[0,1,2,3,4]",survey-multi-choice,71,1314466,0.0-71.0,,,
634c5357a0ba013433eb0dec,3413-2702134d-db2e-489d-a9a9-5b8694a9d089,pilot_10,VLAT_GGR,prolific,survey,5631,"{""participantEd_math"":["" Algebra""]}",[0],survey-multi-select,72,1320109,0.0-72.0,,,
634c537da0ba013433eb0e02,3413-2702134d-db2e-489d-a9a9-5b8694a9d089,pilot_10,VLAT_GGR,prolific,survey,37892,,,survey-text,73,1358018,0.0-73.0,1323469.9000000022,1361361.9000000022,"{""TechnicalDifficultiesFreeResp"":""No technical diffuculties "",""participantAge"":""1997"",""participantYears"":""25"",""participantEd_field"":""Cinematography "",""participantComments"":""This was a very fun very! Had a blast and would love to do more. Thank you for keeping the questions interesting. ""}"
634c5386a0ba013433eb0e0b,9190-6543fd97-82df-4771-b524-1089d09eaa82,pilot_10,VLAT_GGR,prolific,survey,75923,,,survey-text,73,2013398,0.0-73.0,1941078.1999998093,2017001.0999999046,"{""TechnicalDifficultiesFreeResp"":"""",""participantAge"":""1988"",""participantYears"":""34"",""participantEd_field"":""ABA psychology"",""participantComments"":""""}"
634c53d6a0ba013433eb0e45,0210-1fe90a31-b169-42b8-88f0-3adbe816c828,pilot_10,VLAT_GGR,prolific,survey,14846,"{""participantSex"":""Female"",""participantEd"":""Professional degree (e.g. M.D., J.D.)"",""judgedDifficulty"":""7"",""participantEffort"":""I tried my best on each question"",""technicalDifficultiesBinary"":""No""}","[0,1,2,3,4]",survey-multi-choice,71,2569133,0.0-71.0,,,
634c53dfa0ba013433eb0e4e,0210-1fe90a31-b169-42b8-88f0-3adbe816c828,pilot_10,VLAT_GGR,prolific,survey,9724,"{""participantEd_math"":["" Algebra"","" Calculus"","" Statistics""]}",[0],survey-multi-select,72,2578868,0.0-72.0,,,
634c5417a0ba013433eb0e7d,0210-1fe90a31-b169-42b8-88f0-3adbe816c828,pilot_10,VLAT_GGR,prolific,survey,56174,,,survey-text,73,2635056,0.0-73.0,2581644.0,2637818.200000003,"{""TechnicalDifficultiesFreeResp"":""I did not encounter any technical difficulties during the survey."",""participantAge"":""1995"",""participantYears"":""27"",""participantEd_field"":""English/Education"",""participantComments"":""I thought this was interesting and a bit tough. I had to think but I did try my best on each question.""}"
634c542ca0ba013433eb0e8c,3449-88feccb9-5067-4251-8223-ddcee9c5146b,pilot_10,VLAT_GGR,prolific,survey,11829,"{""participantSex"":""Male"",""participantEd"":""Master's degree"",""judgedDifficulty"":""2"",""participantEffort"":""I tried my best on each question"",""technicalDifficultiesBinary"":""No""}","[0,1,2,3,4]",survey-multi-choice,71,1080261,0.0-71.0,,,
634c5431a0ba013433eb0e90,3449-88feccb9-5067-4251-8223-ddcee9c5146b,pilot_10,VLAT_GGR,prolific,survey,4706,"{""participantEd_math"":["" Algebra"","" Calculus"","" Statistics""]}",[0],survey-multi-select,72,1084977,0.0-72.0,,,
634c5447a0ba013433eb0ea0,3449-88feccb9-5067-4251-8223-ddcee9c5146b,pilot_10,VLAT_GGR,prolific,survey,22409,,,survey-text,73,1107395,0.0-73.0,1086545.0,1108953.599999994,"{""TechnicalDifficultiesFreeResp"":""I did not encounter any issues. "",""participantAge"":""1997"",""participantYears"":""25"",""participantEd_field"":""Speech-Language Pathology"",""participantComments"":""""}"
634c5492a0ba013433eb0ec8,9027-aaf02b75-4364-48be-8382-f214e092c867,pilot_10,VLAT_GGR,prolific,survey,10734,"{""participantSex"":""Female"",""participantEd"":""Bachelor's degree"",""judgedDifficulty"":""4"",""participantEffort"":""I tried my best on each question"",""technicalDifficultiesBinary"":""No""}","[0,1,2,3,4]",survey-multi-choice,71,1645811,0.0-71.0,,,
634c5497a0ba013433eb0ecd,9027-aaf02b75-4364-48be-8382-f214e092c867,pilot_10,VLAT_GGR,prolific,survey,5266,"{""participantEd_math"":["" Algebra"","" Calculus"","" Statistics""]}",[0],survey-multi-select,72,1651103,0.0-72.0,,,
634c54a9a0ba013433eb0ed9,9027-aaf02b75-4364-48be-8382-f214e092c867,pilot_10,VLAT_GGR,prolific,survey,18114,,,survey-text,73,1669241,0.0-73.0,1654937.600000143,1673051.7999999523,"{""TechnicalDifficultiesFreeResp"":"""",""participantAge"":""1997"",""participantYears"":""25"",""participantEd_field"":""Marketing"",""participantComments"":""""}"
634c54d7a0ba013433eb0eeb,8516-6b3d05ea-c70f-462b-bf57-ef8d5265b764,pilot_10,VLAT_GGR,prolific,survey,21382,"{""participantSex"":""Female"",""participantEd"":""Associate degree"",""judgedDifficulty"":""1"",""participantEffort"":""I tried my best on each question"",""technicalDifficultiesBinary"":""No""}","[0,1,2,3,4]",survey-multi-choice,71,1821087,0.0-71.0,,,
634c54e4a0ba013433eb0ef3,8516-6b3d05ea-c70f-462b-bf57-ef8d5265b764,pilot_10,VLAT_GGR,prolific,survey,13121,"{""participantEd_math"":["" Algebra"","" Calculus""]}",[0],survey-multi-select,72,1834216,0.0-72.0,,,
634c54eba0ba013433eb0ef8,3609-a5544f0d-ff1c-4cfd-add1-876012c64956,pilot_10,VLAT_GGR,prolific,survey,9162,"{""participantSex"":""Male"",""participantEd"":""Bachelor's degree"",""judgedDifficulty"":""3"",""participantEffort"":""I tried my best on each question"",""technicalDifficultiesBinary"":""No""}","[0,1,2,3,4]",survey-multi-choice,71,1516055,0.0-71.0,,,
634c54eea0ba013433eb0ef9,1734-71fdf071-21c5-432d-a7c8-0350d134c533,pilot_10,VLAT_GGR,prolific,survey,20975,"{""participantSex"":""Female"",""participantEd"":""Bachelor's degree"",""judgedDifficulty"":""2"",""participantEffort"":""I tried my best on each question"",""technicalDifficultiesBinary"":""No""}","[0,1,2,3,4]",survey-multi-choice,71,1834967,0.0-71.0,,,
634c54f3a0ba013433eb0efb,3609-a5544f0d-ff1c-4cfd-add1-876012c64956,pilot_10,VLAT_GGR,prolific,survey,7368,"{""participantEd_math"":["" Algebra"","" Statistics""]}",[0],survey-multi-select,72,1523431,0.0-72.0,,,
634c54f9a0ba013433eb0efe,1734-71fdf071-21c5-432d-a7c8-0350d134c533,pilot_10,VLAT_GGR,prolific,survey,10534,"{""participantEd_math"":["" Algebra"","" Calculus""]}",[0],survey-multi-select,72,1845506,0.0-72.0,,,
634c5504a0ba013433eb0f02,8516-6b3d05ea-c70f-462b-bf57-ef8d5265b764,pilot_10,VLAT_GGR,prolific,survey,31159,,,survey-text,73,1865382,0.0-73.0,1835979.4000000358,1867137.9000000358,"{""TechnicalDifficultiesFreeResp"":""i did not encounter any difficulties."",""participantAge"":""2000"",""participantYears"":""21"",""participantEd_field"":""Marketing"",""participantComments"":""""}"
634c5509a0ba013433eb0f03,3609-a5544f0d-ff1c-4cfd-add1-876012c64956,pilot_10,VLAT_GGR,prolific,survey,22362,,,survey-text,73,1545803,0.0-73.0,1525647.5,1548009.6000000238,"{""TechnicalDifficultiesFreeResp"":""I did not encounter any issues"",""participantAge"":""1993"",""participantYears"":""28"",""participantEd_field"":""Biomedical Sciences"",""participantComments"":""Thank you for the opportunity, and good luck with your study!""}"
634c5518a0ba013433eb0f0b,1734-71fdf071-21c5-432d-a7c8-0350d134c533,pilot_10,VLAT_GGR,prolific,survey,31514,,,survey-text,73,1877026,0.0-73.0,1848993.0,1880506.700000003,"{""TechnicalDifficultiesFreeResp"":"""",""participantAge"":""1984"",""participantYears"":""38"",""participantEd_field"":""Geography & Interaction Design"",""participantComments"":""""}"
634c5536a0ba013433eb0f18,3562-ef46da1c-d54b-4d4b-a74c-e54fd3279bc7,pilot_10,VLAT_GGR,prolific,survey,13223,"{""participantSex"":""Male"",""participantEd"":""Bachelor's degree"",""judgedDifficulty"":""2"",""participantEffort"":""I tried my best on each question"",""technicalDifficultiesBinary"":""No""}","[0,1,2,3,4]",survey-multi-choice,71,2245826,0.0-71.0,,,
634c5539a0ba013433eb0f1d,3562-ef46da1c-d54b-4d4b-a74c-e54fd3279bc7,pilot_10,VLAT_GGR,prolific,survey,3108,"{""participantEd_math"":["" Statistics""]}",[0],survey-multi-select,72,2248937,0.0-72.0,,,
634c5544a0ba013433eb0f23,3562-ef46da1c-d54b-4d4b-a74c-e54fd3279bc7,pilot_10,VLAT_GGR,prolific,survey,11196,,,survey-text,73,2260140,0.0-73.0,2250501.0,2261697.0,"{""TechnicalDifficultiesFreeResp"":"""",""participantAge"":""1997"",""participantYears"":""25"",""participantEd_field"":"""",""participantComments"":""""}"
634c55dca0ba013433eb0f5c,4225-777518e7-a277-45c0-a1a7-d457092d47ec,pilot_10,VLAT_GGR,prolific,survey,21225,"{""participantSex"":""Female"",""participantEd"":""Bachelor's degree"",""judgedDifficulty"":""1"",""participantEffort"":""I tried my best on each question"",""technicalDifficultiesBinary"":""No""}","[0,1,2,3,4]",survey-multi-choice,71,2113672,0.0-71.0,,,
634c55eba0ba013433eb0f5e,4225-777518e7-a277-45c0-a1a7-d457092d47ec,pilot_10,VLAT_GGR,prolific,survey,14935,"{""participantEd_math"":["" Algebra"","" Statistics""]}",[0],survey-multi-select,72,2128615,0.0-72.0,,,
634c5631a0ba013433eb0f79,0377-f3827d98-1da6-45f9-abe9-afb08050658c,pilot_10,VLAT_GGR,prolific,survey,20058,"{""participantSex"":""Female"",""participantEd"":""Bachelor's degree"",""judgedDifficulty"":""6"",""participantEffort"":""I tried my best on each question"",""technicalDifficultiesBinary"":""No""}","[0,1,2,3,4]",survey-multi-choice,71,1605302,0.0-71.0,,,
634c5633a0ba013433eb0f7a,4225-777518e7-a277-45c0-a1a7-d457092d47ec,pilot_10,VLAT_GGR,prolific,survey,71891,,,survey-text,73,2200515,0.0-73.0,2132377.100000024,2204268.2000000477,"{""TechnicalDifficultiesFreeResp"":""I did not encounter any difficulty."",""participantAge"":""1993"",""participantYears"":""29"",""participantEd_field"":""Business Administration and Human Resources Management"",""participantComments"":""Might need to increase resolution for many images, as on bigger screen they become fuzzy.""}"
634c5636a0ba013433eb0f7c,0377-f3827d98-1da6-45f9-abe9-afb08050658c,pilot_10,VLAT_GGR,prolific,survey,4961,"{""participantEd_math"":["" Algebra"","" Calculus"","" Statistics""]}",[0],survey-multi-select,72,1610273,0.0-72.0,,,
634c564aa0ba013433eb0f84,0377-f3827d98-1da6-45f9-abe9-afb08050658c,pilot_10,VLAT_GGR,prolific,survey,19745,,,survey-text,73,1630031,0.0-73.0,1627836.5,1647581.400000006,"{""TechnicalDifficultiesFreeResp"":"""",""participantAge"":""1998"",""participantYears"":""24"",""participantEd_field"":""Biological Sciences"",""participantComments"":""""}"
634c5652a0ba013433eb0f85,3943-8df1f5ad-cf48-400e-a140-5058e5582916,pilot_10,VLAT_GGR,prolific,survey,21741,"{""participantSex"":""Female"",""participantEd"":""Master's degree"",""judgedDifficulty"":""4"",""participantEffort"":""I tried my best on each question"",""technicalDifficultiesBinary"":""No""}","[0,1,2,3,4]",survey-multi-choice,71,1957665,0.0-71.0,,,
634c5656a0ba013433eb0f88,6230-52f27215-3284-49cd-a168-6d12e1ed0572,pilot_10,VLAT_GGR,prolific,survey,18816,"{""participantSex"":""Female"",""participantEd"":""Associate degree"",""judgedDifficulty"":""4"",""participantEffort"":""I tried my best on each question"",""technicalDifficultiesBinary"":""No""}","[0,1,2,3,4]",survey-multi-choice,72,1720303,0.0-71.0,,,
634c5660a0ba013433eb0f8c,3943-8df1f5ad-cf48-400e-a140-5058e5582916,pilot_10,VLAT_GGR,prolific,survey,14224,"{""participantEd_math"":["" Algebra"","" Statistics""]}",[0],survey-multi-select,72,1971896,0.0-72.0,,,
634c5663a0ba013433eb0f8d,6230-52f27215-3284-49cd-a168-6d12e1ed0572,pilot_10,VLAT_GGR,prolific,survey,13010,"{""participantEd_math"":["" None""]}",[0],survey-multi-select,73,1733334,0.0-72.0,,,
634c567aa0ba013433eb0f93,3943-8df1f5ad-cf48-400e-a140-5058e5582916,pilot_10,VLAT_GGR,prolific,survey,25882,,,survey-text,73,1997785,0.0-73.0,1980762.1000000238,2006644.5,"{""TechnicalDifficultiesFreeResp"":"""",""participantAge"":""1958"",""participantYears"":""64"",""participantEd_field"":""Accounting"",""participantComments"":""""}"
634c5685a0ba013433eb0f95,6230-52f27215-3284-49cd-a168-6d12e1ed0572,pilot_10,VLAT_GGR,prolific,survey,33699,,,survey-text,74,1767053,0.0-73.0,1736408.5,1770107.5999999642,"{""TechnicalDifficultiesFreeResp"":"""",""participantAge"":""1966"",""participantYears"":""55"",""participantEd_field"":""ART"",""participantComments"":""""}"
634c57aaa0ba013433eb0fda,7941-52aee513-867a-440e-9c78-b120215acb63,pilot_10,VLAT_GGR,prolific,survey,18216,"{""participantSex"":""Male"",""participantEd"":""Bachelor's degree"",""judgedDifficulty"":""2"",""participantEffort"":""I tried my best on each question"",""technicalDifficultiesBinary"":""No""}","[0,1,2,3,4]",survey-multi-choice,71,2920113,0.0-71.0,,,
634c57b2a0ba013433eb0fde,7941-52aee513-867a-440e-9c78-b120215acb63,pilot_10,VLAT_GGR,prolific,survey,7882,"{""participantEd_math"":["" Algebra"","" Statistics""]}",[0],survey-multi-select,72,2928001,0.0-72.0,,,
634c57cba0ba013433eb0fe5,7941-52aee513-867a-440e-9c78-b120215acb63,pilot_10,VLAT_GGR,prolific,survey,24761,,,survey-text,73,2952776,0.0-73.0,2930074.0,2954835.0,"{""TechnicalDifficultiesFreeResp"":"""",""participantAge"":""1977"",""participantYears"":""45"",""participantEd_field"":""Accounting & Finance"",""participantComments"":""""}"
634c5923a0ba013433eb1033,5278-129d6e9c-844c-4afd-b6b6-37bede000c0e,pilot_10,VLAT_GGR,prolific,survey,18669,"{""participantSex"":""Female"",""participantEd"":""Professional degree (e.g. M.D., J.D.)"",""judgedDifficulty"":""3"",""participantEffort"":""I tried my best on each question"",""technicalDifficultiesBinary"":""No""}","[0,1,2,3,4]",survey-multi-choice,71,2248287,0.0-71.0,,,
634c5928a0ba013433eb1034,5278-129d6e9c-844c-4afd-b6b6-37bede000c0e,pilot_10,VLAT_GGR,prolific,survey,4796,"{""participantEd_math"":["" Algebra"","" Calculus"","" Statistics""]}",[0],survey-multi-select,72,2253094,0.0-72.0,,,
634c5936a0ba013433eb1038,8127-cb442bda-e729-414b-a2f8-ab1cf990ff2c,pilot_10,VLAT_GGR,prolific,survey,11320,"{""participantSex"":""Male"",""participantEd"":""High school graduate, diploma or equivalent"",""judgedDifficulty"":""4"",""participantEffort"":""I tried my best on each question"",""technicalDifficultiesBinary"":""No""}","[0,1,2,3,4]",survey-multi-choice,71,2909913,0.0-71.0,,,
634c5938a0ba013433eb1039,8127-cb442bda-e729-414b-a2f8-ab1cf990ff2c,pilot_10,VLAT_GGR,prolific,survey,2569,"{""participantEd_math"":["" None""]}",[0],survey-multi-select,72,2912522,0.0-72.0,,,
634c593aa0ba013433eb103b,5278-129d6e9c-844c-4afd-b6b6-37bede000c0e,pilot_10,VLAT_GGR,prolific,survey,17935,,,survey-text,73,2271039,0.0-73.0,2254656.299999997,2272591.1000000015,"{""TechnicalDifficultiesFreeResp"":"""",""participantAge"":""1996"",""participantYears"":""26"",""participantEd_field"":""Occupational Therapy"",""participantComments"":""""}"
634c593ea0ba013433eb103c,5114-0bf6e8c7-7139-4baf-b299-e104ef3569f5,pilot_10,VLAT_GGR,prolific,survey,50058,"{""participantSex"":""Female"",""participantEd"":""High school graduate, diploma or equivalent"",""judgedDifficulty"":""1"",""participantEffort"":""I tried my best on each question"",""technicalDifficultiesBinary"":""No""}","[0,1,2,3,4]",survey-multi-choice,71,2994122,0.0-71.0,,,
634c5946a0ba013433eb103d,5114-0bf6e8c7-7139-4baf-b299-e104ef3569f5,pilot_10,VLAT_GGR,prolific,survey,7903,"{""participantEd_math"":["" Algebra""]}",[0],survey-multi-select,72,3002035,0.0-72.0,,,
634c5949a0ba013433eb103e,8127-cb442bda-e729-414b-a2f8-ab1cf990ff2c,pilot_10,VLAT_GGR,prolific,survey,16864,,,survey-text,73,2929424,0.0-73.0,2919100.3000001907,2935964.1000003815,"{""TechnicalDifficultiesFreeResp"":"""",""participantAge"":""1992"",""participantYears"":""29"",""participantEd_field"":""N/A"",""participantComments"":""""}"
634c5952a0ba013433eb1041,5114-0bf6e8c7-7139-4baf-b299-e104ef3569f5,pilot_10,VLAT_GGR,prolific,survey,11816,,,survey-text,73,3013865,0.0-73.0,3004602.599999994,3016418.899999991,"{""TechnicalDifficultiesFreeResp"":"""",""participantAge"":""1999"",""participantYears"":""23"",""participantEd_field"":"""",""participantComments"":""""}"
634c59e2a0ba013433eb104f,5266-813ea644-0c0b-4b0c-9e93-9a9ab1800c71,pilot_10,VLAT_GGR,prolific,survey,19855,"{""participantSex"":""Female"",""participantEd"":""Master's degree"",""judgedDifficulty"":""5"",""participantEffort"":""I tried my best on each question"",""technicalDifficultiesBinary"":""Yes""}","[0,1,2,3,4]",survey-multi-choice,71,1866372,0.0-71.0,,,
634c59eca0ba013433eb1050,5266-813ea644-0c0b-4b0c-9e93-9a9ab1800c71,pilot_10,VLAT_GGR,prolific,survey,10165,"{""participantEd_math"":["" Algebra"","" Statistics""]}",[0],survey-multi-select,72,1876546,0.0-72.0,,,
634c5a2da0ba013433eb1052,5266-813ea644-0c0b-4b0c-9e93-9a9ab1800c71,pilot_10,VLAT_GGR,prolific,survey,65067,,,survey-text,73,1941622,0.0-73.0,1881423.7999999998,1946490.6,"{""TechnicalDifficultiesFreeResp"":""My computer froze, and I had to retake and then it would not let me use  a browse with certain requirements."",""participantAge"":""1978"",""participantYears"":""44"",""participantEd_field"":""Education"",""participantComments"":""I like graphs!""}"
634c60dda0ba013433eb1079,8169-74e910a5-ceed-4bc3-b2b3-573a15d2e8bb,pilot_10,VLAT_GGR,prolific,survey,63416,"{""participantSex"":""Male"",""participantEd"":""Associate degree"",""judgedDifficulty"":""3"",""participantEffort"":""I tried my best on each question"",""technicalDifficultiesBinary"":""No""}","[0,1,2,3,4]",survey-multi-choice,71,4196575,0.0-71.0,,,
634c60eba0ba013433eb107a,8169-74e910a5-ceed-4bc3-b2b3-573a15d2e8bb,pilot_10,VLAT_GGR,prolific,survey,14370,"{""participantEd_math"":["" Algebra"","" Statistics""]}",[0],survey-multi-select,72,4210976,0.0-72.0,,,
634c6184a0ba013433eb107d,8169-74e910a5-ceed-4bc3-b2b3-573a15d2e8bb,pilot_10,VLAT_GGR,prolific,survey,152964,,,survey-text,73,4364064,0.0-73.0,4220627.200000001,4373590.799999999,"{""TechnicalDifficultiesFreeResp"":"""",""participantAge"":""1977"",""participantYears"":""45"",""participantEd_field"":""Computer Science"",""participantComments"":""I enjoyed participating in this study and I highly appreciate you giving me this opportunity. Thanks!""}"
634c680ea0ba013433eb109b,7563-55ddfd30-08f7-4e44-9357-8075b0a7eddd,pilot_10,VLAT_GGR,prolific,survey,30740,"{""participantSex"":""Male"",""participantEd"":""Bachelor's degree"",""judgedDifficulty"":""6"",""participantEffort"":""I tried my best on each question"",""technicalDifficultiesBinary"":""No""}","[0,1,2,3,4]",survey-multi-choice,71,6530466,0.0-71.0,,,
634c681ea0ba013433eb109c,7563-55ddfd30-08f7-4e44-9357-8075b0a7eddd,pilot_10,VLAT_GGR,prolific,survey,16130,"{""participantEd_math"":["" Algebra"","" Calculus""]}",[0],survey-multi-select,72,6546633,0.0-72.0,,,
634c6849a0ba013433eb109d,7563-55ddfd30-08f7-4e44-9357-8075b0a7eddd,pilot_10,VLAT_GGR,prolific,survey,43420,,,survey-text,73,6590088,0.0-73.0,6549165.0,6592585.0,"{""TechnicalDifficultiesFreeResp"":"""",""participantAge"":""1946"",""participantYears"":""76"",""participantEd_field"":""Aerospace Engineering"",""participantComments"":""""}"
63515f5b7736a2799ae74bdb,5367-221d71e7-f7ce-4fa3-af78-70bc27c94d62,pilot_10,VLAT_GGR,prolific,survey,12075,"{""participantSex"":""Female"",""participantEd"":""Bachelor's degree"",""judgedDifficulty"":""4"",""participantEffort"":""I tried my best on each question"",""technicalDifficultiesBinary"":""No""}","[0,1,2,3,4]",survey-multi-choice,72,1034470,0.0-71.0,,,
63515f607736a2799ae74bdd,5367-221d71e7-f7ce-4fa3-af78-70bc27c94d62,pilot_10,VLAT_GGR,prolific,survey,4945,"{""participantEd_math"":["" Algebra"","" Calculus""]}",[0],survey-multi-select,73,1039425,0.0-72.0,,,
63515f6c7736a2799ae74be3,5367-221d71e7-f7ce-4fa3-af78-70bc27c94d62,pilot_10,VLAT_GGR,prolific,survey,11827,,,survey-text,74,1051265,0.0-73.0,1040512.6999999881,1052339.5,"{""TechnicalDifficultiesFreeResp"":""none"",""participantAge"":""1995"",""participantYears"":""26"",""participantEd_field"":""biology"",""participantComments"":""""}"
6351604d7736a2799ae74c21,7754-1e9bcce6-851a-46e5-85c4-db1bd6570698,pilot_10,VLAT_GGR,prolific,survey,14285,"{""participantSex"":""Male"",""participantEd"":""Bachelor's degree"",""judgedDifficulty"":""2"",""participantEffort"":""I tried my best on each question"",""technicalDifficultiesBinary"":""No""}","[0,1,2,3,4]",survey-multi-choice,72,1397353,0.0-71.0,,,
635160537736a2799ae74c22,7754-1e9bcce6-851a-46e5-85c4-db1bd6570698,pilot_10,VLAT_GGR,prolific,survey,5934,"{""participantEd_math"":["" Algebra"","" Calculus"","" Statistics""]}",[0],survey-multi-select,73,1403292,0.0-72.0,,,
635160647736a2799ae74c27,6030-7813e60d-cbde-4a4f-b504-ad25c8a93a03,pilot_10,VLAT_GGR,prolific,survey,13071,"{""participantSex"":""Male"",""participantEd"":""Bachelor's degree"",""judgedDifficulty"":""2"",""participantEffort"":""I tried my best on each question"",""technicalDifficultiesBinary"":""No""}","[0,1,2,3,4]",survey-multi-choice,71,1132550,0.0-71.0,,,
635160647736a2799ae74c28,7754-1e9bcce6-851a-46e5-85c4-db1bd6570698,pilot_10,VLAT_GGR,prolific,survey,17340,,,survey-text,74,1420638,0.0-73.0,1405584.2999999523,1422924.699999988,"{""TechnicalDifficultiesFreeResp"":"""",""participantAge"":""1998"",""participantYears"":""23"",""participantEd_field"":""Information Science"",""participantComments"":""Thanks!""}"
6351606c7736a2799ae74c29,6030-7813e60d-cbde-4a4f-b504-ad25c8a93a03,pilot_10,VLAT_GGR,prolific,survey,8494,"{""participantEd_math"":["" Algebra"","" Calculus"","" Statistics""]}",[0],survey-multi-select,72,1141046,0.0-72.0,,,
6351607b7736a2799ae74c2d,6030-7813e60d-cbde-4a4f-b504-ad25c8a93a03,pilot_10,VLAT_GGR,prolific,survey,14690,,,survey-text,73,1155741,0.0-73.0,1142542.8000000045,1157232.6000000015,"{""TechnicalDifficultiesFreeResp"":"""",""participantAge"":""1986"",""participantYears"":""36"",""participantEd_field"":""Mathematics"",""participantComments"":""""}"
635161dd7736a2799ae74c7a,7428-71d964e5-99fd-4c10-ac63-ed7fb9dac490,pilot_10,VLAT_GGR,prolific,survey,25999,"{""participantSex"":""Female"",""participantEd"":""Bachelor's degree"",""judgedDifficulty"":""5"",""participantEffort"":""I tried my best on most questions"",""technicalDifficultiesBinary"":""No""}","[0,1,2,3,4]",survey-multi-choice,73,1236076,0.0-71.0,,,
635161e67736a2799ae74c7c,7428-71d964e5-99fd-4c10-ac63-ed7fb9dac490,pilot_10,VLAT_GGR,prolific,survey,8898,"{""participantEd_math"":["" Algebra""]}",[0],survey-multi-select,74,1244980,0.0-72.0,,,
635162027736a2799ae74c8b,7428-71d964e5-99fd-4c10-ac63-ed7fb9dac490,pilot_10,VLAT_GGR,prolific,survey,28211,,,survey-text,75,1273196,0.0-73.0,1246886.299999997,1275097.1999999955,"{""TechnicalDifficultiesFreeResp"":"""",""participantAge"":""1986"",""participantYears"":""36"",""participantEd_field"":""English"",""participantComments"":""N/A""}"
635163a67736a2799ae74d85,6276-60c7970d-c42d-4151-9096-d360ae013eae,pilot_10,VLAT_GGR,prolific,survey,22286,"{""participantSex"":""Male"",""participantEd"":""Master's degree"",""judgedDifficulty"":""1"",""participantEffort"":""I tried my best on each question"",""technicalDifficultiesBinary"":""No""}","[0,1,2,3,4]",survey-multi-choice,71,1584288,0.0-71.0,,,
635163af7736a2799ae74d8e,6276-60c7970d-c42d-4151-9096-d360ae013eae,pilot_10,VLAT_GGR,prolific,survey,8050,"{""participantEd_math"":["" Algebra"","" Statistics""]}",[0],survey-multi-select,72,1592343,0.0-72.0,,,
635164227736a2799ae74e09,6276-60c7970d-c42d-4151-9096-d360ae013eae,pilot_10,VLAT_GGR,prolific,survey,115820,,,survey-text,73,1708168,0.0-73.0,1598942.300000012,1714762.7000000477,"{""TechnicalDifficultiesFreeResp"":""Nope, survey worked well."",""participantAge"":""1988"",""participantYears"":""34"",""participantEd_field"":""Masters of Science - Concentration in Data Analytics"",""participantComments"":""I feel like I went through this quickly, but I work in data viz all day and I'm used to these kind of stuff. \n\nFun survey though!""}"
635165987736a2799ae74fcf,1970-e1a95b37-0f80-4156-bd8a-6198fa5615b6,pilot_10,VLAT_GGR,prolific,survey,14659,"{""participantSex"":""Female"",""participantEd"":""Master's degree"",""judgedDifficulty"":""4"",""participantEffort"":""I tried my best on each question"",""technicalDifficultiesBinary"":""No""}","[0,1,2,3,4]",survey-multi-choice,71,1000597,0.0-71.0,,,
6351659d7736a2799ae74fd5,1970-e1a95b37-0f80-4156-bd8a-6198fa5615b6,pilot_10,VLAT_GGR,prolific,survey,5288,"{""participantEd_math"":["" Algebra"","" Calculus"","" Statistics""]}",[0],survey-multi-select,72,1005893,0.0-72.0,,,
635165b27736a2799ae74fed,1970-e1a95b37-0f80-4156-bd8a-6198fa5615b6,pilot_10,VLAT_GGR,prolific,survey,20934,,,survey-text,73,1026841,0.0-73.0,1006931.4000000358,1027865.6999999881,"{""TechnicalDifficultiesFreeResp"":"""",""participantAge"":""1974"",""participantYears"":""47"",""participantEd_field"":""Public Administration"",""participantComments"":""""}"
6351661a7736a2799ae75067,7272-daf04a64-f5fa-458e-8da4-dd71ca5292c4,pilot_10,VLAT_GGR,prolific,survey,9621,"{""participantSex"":""Male"",""participantEd"":""Bachelor's degree"",""judgedDifficulty"":""1"",""participantEffort"":""I tried my best on each question"",""technicalDifficultiesBinary"":""No""}","[0,1,2,3,4]",survey-multi-choice,71,901689,0.0-71.0,,,
635166207736a2799ae75071,7272-daf04a64-f5fa-458e-8da4-dd71ca5292c4,pilot_10,VLAT_GGR,prolific,survey,5345,"{""participantEd_math"":["" Algebra"","" Calculus"","" Statistics""]}",[0],survey-multi-select,72,907041,0.0-72.0,,,
6351662e7736a2799ae75085,7272-daf04a64-f5fa-458e-8da4-dd71ca5292c4,pilot_10,VLAT_GGR,prolific,survey,14542,,,survey-text,73,921591,0.0-73.0,909979.599999994,924521.299999997,"{""TechnicalDifficultiesFreeResp"":""No issues"",""participantAge"":""1996"",""participantYears"":""26"",""participantEd_field"":""Mathematics"",""participantComments"":""No comment""}"
6351665e7736a2799ae750b8,6267-62b85919-f5d0-4586-b270-e8eeff650eac,pilot_10,VLAT_GGR,prolific,survey,12643,"{""participantSex"":""Female"",""participantEd"":""Bachelor's degree"",""judgedDifficulty"":""5"",""participantEffort"":""I tried my best on each question"",""technicalDifficultiesBinary"":""No""}","[0,1,2,3,4]",survey-multi-choice,71,1453188,0.0-71.0,,,
635166647736a2799ae750c1,6267-62b85919-f5d0-4586-b270-e8eeff650eac,pilot_10,VLAT_GGR,prolific,survey,6381,"{""participantEd_math"":["" Algebra"","" Calculus""]}",[0],survey-multi-select,72,1459574,0.0-72.0,,,
635166767736a2799ae750d3,6267-62b85919-f5d0-4586-b270-e8eeff650eac,pilot_10,VLAT_GGR,prolific,survey,18042,,,survey-text,73,1477623,0.0-73.0,1461427.1999999285,1479469.5,"{""TechnicalDifficultiesFreeResp"":"""",""participantAge"":""1995"",""participantYears"":""27"",""participantEd_field"":""horticulture"",""participantComments"":""""}"
635166787736a2799ae750d5,9104-1b0e2b8c-b2bf-4d4b-9196-31af7fa80983,pilot_10,VLAT_GGR,prolific,survey,11363,"{""participantSex"":""Male"",""participantEd"":""High school graduate, diploma or equivalent"",""judgedDifficulty"":""3"",""participantEffort"":""I tried my best on each question"",""technicalDifficultiesBinary"":""No""}","[0,1,2,3,4]",survey-multi-choice,71,1031250,0.0-71.0,,,
6351667d7736a2799ae750dc,9104-1b0e2b8c-b2bf-4d4b-9196-31af7fa80983,pilot_10,VLAT_GGR,prolific,survey,4980,"{""participantEd_math"":["" Algebra""]}",[0],survey-multi-select,72,1036235,0.0-72.0,,,
6351668a7736a2799ae750e9,9104-1b0e2b8c-b2bf-4d4b-9196-31af7fa80983,pilot_10,VLAT_GGR,prolific,survey,12980,,,survey-text,73,1049220,0.0-73.0,1037740.1999999285,1050720.3999999762,"{""TechnicalDifficultiesFreeResp"":"""",""participantAge"":""1999"",""participantYears"":""22"",""participantEd_field"":""na"",""participantComments"":""""}"
635166ad7736a2799ae7510e,9097-c44a4209-85ef-45aa-9864-525d8aa29b68,pilot_10,VLAT_GGR,prolific,survey,13842,"{""participantSex"":""Female"",""participantEd"":""Bachelor's degree"",""judgedDifficulty"":""4"",""participantEffort"":""I tried my best on each question"",""technicalDifficultiesBinary"":""No""}","[0,1,2,3,4]",survey-multi-choice,72,1150104,0.0-71.0,,,
635166b27736a2799ae75112,9097-c44a4209-85ef-45aa-9864-525d8aa29b68,pilot_10,VLAT_GGR,prolific,survey,5071,"{""participantEd_math"":["" Algebra"","" Calculus"","" Statistics""]}",[0],survey-multi-select,73,1155182,0.0-72.0,,,
635166e07736a2799ae7513a,9097-c44a4209-85ef-45aa-9864-525d8aa29b68,pilot_10,VLAT_GGR,prolific,survey,46433,,,survey-text,74,1201621,0.0-73.0,1157329.0,1203761.5999999046,"{""TechnicalDifficultiesFreeResp"":""no technical issues"",""participantAge"":""1982"",""participantYears"":""40"",""participantEd_field"":""psychology"",""participantComments"":""a few of the charts had teeny tiny print that was harder to read""}"
635166ec7736a2799ae75142,1884-34f2051a-7643-4abb-863d-c4ba0ac7e968,pilot_10,VLAT_GGR,prolific,survey,31606,"{""participantSex"":""Male"",""participantEd"":""Bachelor's degree"",""judgedDifficulty"":""5"",""participantEffort"":""I tried my best on each question"",""technicalDifficultiesBinary"":""No""}","[0,1,2,3,4]",survey-multi-choice,71,1444029,0.0-71.0,,,
635166f17736a2799ae75149,1884-34f2051a-7643-4abb-863d-c4ba0ac7e968,pilot_10,VLAT_GGR,prolific,survey,5907,"{""participantEd_math"":["" Algebra"","" Calculus"","" Statistics""]}",[0],survey-multi-select,72,1449940,0.0-72.0,,,
6351670f7736a2799ae75164,6462-082c4a1e-5328-4e8d-b166-c349c1163674,pilot_10,VLAT_GGR,prolific,survey,10239,"{""participantSex"":""Female"",""participantEd"":""Master's degree"",""judgedDifficulty"":""3"",""participantEffort"":""I tried my best on each question"",""technicalDifficultiesBinary"":""No""}","[0,1,2,3,4]",survey-multi-choice,71,844740,0.0-71.0,,,
635167107736a2799ae75165,1162-79dd280c-2557-4342-93a1-a667bcc86253,pilot_10,VLAT_GGR,prolific,survey,22835,"{""participantSex"":""Female"",""participantEd"":""High school graduate, diploma or equivalent"",""judgedDifficulty"":""4"",""participantEffort"":""I tried my best on most questions"",""technicalDifficultiesBinary"":""No""}","[0,1,2,3,4]",survey-multi-choice,71,1414040,0.0-71.0,,,
635167147736a2799ae75168,6462-082c4a1e-5328-4e8d-b166-c349c1163674,pilot_10,VLAT_GGR,prolific,survey,5376,"{""participantEd_math"":["" Algebra"","" Statistics""]}",[0],survey-multi-select,72,850127,0.0-72.0,,,
635167167736a2799ae75169,1162-79dd280c-2557-4342-93a1-a667bcc86253,pilot_10,VLAT_GGR,prolific,survey,5683,"{""participantEd_math"":["" Algebra""]}",[0],survey-multi-select,72,1419731,0.0-72.0,,,
635167227736a2799ae75170,6462-082c4a1e-5328-4e8d-b166-c349c1163674,pilot_10,VLAT_GGR,prolific,survey,13219,,,survey-text,73,863358,0.0-73.0,852849.2000000477,866068.0999999046,"{""TechnicalDifficultiesFreeResp"":"""",""participantAge"":""1992"",""participantYears"":""30"",""participantEd_field"":""Public Health"",""participantComments"":""""}"
635167257736a2799ae75176,1162-79dd280c-2557-4342-93a1-a667bcc86253,pilot_10,VLAT_GGR,prolific,survey,15494,,,survey-text,73,1435237,0.0-73.0,1423934.599999994,1439428.899999991,"{""TechnicalDifficultiesFreeResp"":"""",""participantAge"":""1972"",""participantYears"":""50"",""participantEd_field"":"""",""participantComments"":""""}"
6351672d7736a2799ae7517c,1884-34f2051a-7643-4abb-863d-c4ba0ac7e968,pilot_10,VLAT_GGR,prolific,survey,59898,,,survey-text,73,1509845,0.0-73.0,1451274.0,1511172.4,"{""TechnicalDifficultiesFreeResp"":"""",""participantAge"":""1996"",""participantYears"":""26"",""participantEd_field"":""Computer Engineering"",""participantComments"":""I didn't know there where so many different types of graphs until I did this study. It was pretty fun.""}"
6351676a7736a2799ae751a0,9164-a483e8b1-efe6-4b8b-a264-a03438b70bcc,pilot_10,VLAT_GGR,prolific,survey,20461,"{""participantSex"":""Female"",""participantEd"":""Bachelor's degree"",""judgedDifficulty"":""2"",""participantEffort"":""I tried my best on each question"",""technicalDifficultiesBinary"":""No""}","[0,1,2,3,4]",survey-multi-choice,71,1654878,0.0-71.0,,,
635167777736a2799ae751a8,9164-a483e8b1-efe6-4b8b-a264-a03438b70bcc,pilot_10,VLAT_GGR,prolific,survey,13656,"{""participantEd_math"":["" Algebra"","" Statistics""]}",[0],survey-multi-select,72,1668544,0.0-72.0,,,
635167947736a2799ae751bd,9164-a483e8b1-efe6-4b8b-a264-a03438b70bcc,pilot_10,VLAT_GGR,prolific,survey,28328,,,survey-text,73,1696881,0.0-73.0,1673328.8999999762,1701657.1000000238,"{""TechnicalDifficultiesFreeResp"":"""",""participantAge"":""1995"",""participantYears"":""27"",""participantEd_field"":""Music Therapy"",""participantComments"":""""}"
635167bb7736a2799ae751d8,4743-72a4bd85-cb3b-4425-aef5-7eefa2af37c2,pilot_10,VLAT_GGR,prolific,survey,15942,"{""participantSex"":""Male"",""participantEd"":""Bachelor's degree"",""judgedDifficulty"":""5"",""participantEffort"":""I tried my best on each question"",""technicalDifficultiesBinary"":""No""}","[0,1,2,3,4]",survey-multi-choice,73,1543314,0.0-71.0,,,
635167c37736a2799ae751dd,4743-72a4bd85-cb3b-4425-aef5-7eefa2af37c2,pilot_10,VLAT_GGR,prolific,survey,7552,"{""participantEd_math"":["" Algebra""]}",[0],survey-multi-select,74,1550871,0.0-72.0,,,
635167df7736a2799ae751f1,4743-72a4bd85-cb3b-4425-aef5-7eefa2af37c2,pilot_10,VLAT_GGR,prolific,survey,27612,,,survey-text,75,1578495,0.0-73.0,1552766.6,1580379.0000000005,"{""TechnicalDifficultiesFreeResp"":"""",""participantAge"":""1977"",""participantYears"":""46"",""participantEd_field"":""Culinary Arts"",""participantComments"":""""}"
635167fc7736a2799ae75204,0391-0638999d-ada6-439f-96d0-a1691eabc569,pilot_10,VLAT_GGR,prolific,survey,21656,"{""participantSex"":""Female"",""participantEd"":""Bachelor's degree"",""judgedDifficulty"":""3"",""participantEffort"":""I tried my best on each question"",""technicalDifficultiesBinary"":""Yes""}","[0,1,2,3,4]",survey-multi-choice,71,1435358,0.0-71.0,,,
635167ff7736a2799ae75206,3109-3fd575e9-d5ff-4d97-97f0-8abf56f19de8,pilot_10,VLAT_GGR,prolific,survey,20171,"{""participantSex"":"""",""participantEd"":""High school graduate, diploma or equivalent"",""judgedDifficulty"":""1"",""participantEffort"":""I tried my best on each question"",""technicalDifficultiesBinary"":""No""}","[0,1,2,3,4]",survey-multi-choice,71,2010937,0.0-71.0,,,
635168037736a2799ae75208,0391-0638999d-ada6-439f-96d0-a1691eabc569,pilot_10,VLAT_GGR,prolific,survey,6626,"{""participantEd_math"":["" Algebra"","" Statistics""]}",[0],survey-multi-select,72,1441990,0.0-72.0,,,
635168097736a2799ae7520d,3109-3fd575e9-d5ff-4d97-97f0-8abf56f19de8,pilot_10,VLAT_GGR,prolific,survey,10490,"{""participantEd_math"":["" Algebra""]}",[0],survey-multi-select,72,2021431,0.0-72.0,,,
635168187736a2799ae75214,3109-3fd575e9-d5ff-4d97-97f0-8abf56f19de8,pilot_10,VLAT_GGR,prolific,survey,14410,,,survey-text,73,2035848,0.0-73.0,2024454.0,2038864.0,"{""TechnicalDifficultiesFreeResp"":"""",""participantAge"":""1964"",""participantYears"":""58"",""participantEd_field"":"""",""participantComments"":""""}"
6351684d7736a2799ae75230,0391-0638999d-ada6-439f-96d0-a1691eabc569,pilot_10,VLAT_GGR,prolific,survey,74024,,,survey-text,73,1516019,0.0-73.0,1444234.0,1518258.0,"{""TechnicalDifficultiesFreeResp"":""The font was so small I could barely read it."",""participantAge"":""1962"",""participantYears"":""60"",""participantEd_field"":""geography"",""participantComments"":""It was fun, but the font was so small throughout (labels on graphs/charts) I could barely read it. I don't think that was the point of the study so thought it was worth pointing out.""}"
635168517736a2799ae75236,8183-802ab307-1283-467a-b9fb-0a338b53c08d,pilot_10,VLAT_GGR,prolific,survey,13498,"{""participantSex"":""Male"",""participantEd"":""High school graduate, diploma or equivalent"",""judgedDifficulty"":""3"",""participantEffort"":""I tried my best on each question"",""technicalDifficultiesBinary"":""No""}","[0,1,2,3,4]",survey-multi-choice,73,1187418,0.0-71.0,,,
635168567736a2799ae75238,8183-802ab307-1283-467a-b9fb-0a338b53c08d,pilot_10,VLAT_GGR,prolific,survey,4757,"{""participantEd_math"":["" None""]}",[0],survey-multi-select,74,1192181,0.0-72.0,,,
635168647736a2799ae75241,8183-802ab307-1283-467a-b9fb-0a338b53c08d,pilot_10,VLAT_GGR,prolific,survey,14758,,,survey-text,75,1206946,0.0-73.0,1197912.2000000477,1212670.3000000715,"{""TechnicalDifficultiesFreeResp"":"""",""participantAge"":""1994"",""participantYears"":""28"",""participantEd_field"":""N/A"",""participantComments"":""None""}"
635168807736a2799ae7524a,0178-d0e475cc-0f71-48ec-b5b7-5f8ea7e83eac,pilot_10,VLAT_GGR,prolific,survey,27558,"{""participantSex"":""Male"",""participantEd"":""Bachelor's degree"",""judgedDifficulty"":""5"",""participantEffort"":""I tried my best on each question"",""technicalDifficultiesBinary"":""No""}","[0,1,2,3,4]",survey-multi-choice,71,1811236,0.0-71.0,,,
6351688a7736a2799ae7524f,0178-d0e475cc-0f71-48ec-b5b7-5f8ea7e83eac,pilot_10,VLAT_GGR,prolific,survey,9483,"{""participantEd_math"":["" Algebra""]}",[0],survey-multi-select,72,1820723,0.0-72.0,,,
6351688e7736a2799ae75252,5699-10decbd8-3e5d-48f1-8e15-4f3dedde8af2,pilot_10,VLAT_GGR,prolific,survey,58775,"{""participantSex"":""Female"",""participantEd"":""Associate degree"",""judgedDifficulty"":""4"",""participantEffort"":""I tried my best on each question"",""technicalDifficultiesBinary"":""No""}","[0,1,2,3,4]",survey-multi-choice,71,2657753,0.0-71.0,,,
6351689f7736a2799ae7525b,5699-10decbd8-3e5d-48f1-8e15-4f3dedde8af2,pilot_10,VLAT_GGR,prolific,survey,17156,"{""participantEd_math"":["" Algebra""]}",[0],survey-multi-select,72,2674913,0.0-72.0,,,
635168a47736a2799ae7525d,2566-1217c7f8-c3cc-417d-ad80-74ce8ca210d9,pilot_10,VLAT_GGR,prolific,survey,15941,"{""participantSex"":""Female"",""participantEd"":""Professional degree (e.g. M.D., J.D.)"",""judgedDifficulty"":""2"",""participantEffort"":""I tried my best on each question"",""technicalDifficultiesBinary"":""No""}","[0,1,2,3,4]",survey-multi-choice,71,1266210,0.0-71.0,,,
635168ac7736a2799ae7525f,2566-1217c7f8-c3cc-417d-ad80-74ce8ca210d9,pilot_10,VLAT_GGR,prolific,survey,7330,"{""participantEd_math"":["" Algebra"","" Statistics""]}",[0],survey-multi-select,72,1273552,0.0-72.0,,,
635168c87736a2799ae75267,2566-1217c7f8-c3cc-417d-ad80-74ce8ca210d9,pilot_10,VLAT_GGR,prolific,survey,28076,,,survey-text,73,1301638,0.0-73.0,1275166.0,1303241.8000011444,"{""TechnicalDifficultiesFreeResp"":""I did not encounter any technical difficulties"",""participantAge"":""1995"",""participantYears"":""27"",""participantEd_field"":""Law"",""participantComments"":""It was fun :)""}"
635168cf7736a2799ae7526b,5049-a94592b8-0b83-49a6-a055-4d834d569987,pilot_10,VLAT_GGR,prolific,survey,20784,"{""participantSex"":""Female"",""participantEd"":""Bachelor's degree"",""judgedDifficulty"":""6"",""participantEffort"":""I tried my best on each question"",""technicalDifficultiesBinary"":""No""}","[0,1,2,3,4]",survey-multi-choice,73,1726558,0.0-71.0,,,
635168d57736a2799ae7526e,5049-a94592b8-0b83-49a6-a055-4d834d569987,pilot_10,VLAT_GGR,prolific,survey,6073,"{""participantEd_math"":["" Algebra"","" Calculus"","" Statistics""]}",[0],survey-multi-select,74,1732640,0.0-72.0,,,
635168dd7736a2799ae75270,0178-d0e475cc-0f71-48ec-b5b7-5f8ea7e83eac,pilot_10,VLAT_GGR,prolific,survey,82779,,,survey-text,73,1903508,0.0-73.0,1829546.800000012,1912325.6000000238,"{""TechnicalDifficultiesFreeResp"":"""",""participantAge"":""1959"",""participantYears"":""62"",""participantEd_field"":""agriculture"",""participantComments"":""Some of the print on some graphs was so small it was very hard to see.  I had to magnify my screen to see the words.""}"
635168e17736a2799ae75272,5699-10decbd8-3e5d-48f1-8e15-4f3dedde8af2,pilot_10,VLAT_GGR,prolific,survey,65972,,,survey-text,73,2740889,0.0-73.0,2676520.7000000477,2742492.399999976,"{""TechnicalDifficultiesFreeResp"":"""",""participantAge"":""1970"",""participantYears"":""52"",""participantEd_field"":""Video Production"",""participantComments"":""I didn't realize how much I enjoy interpreting info on graphs!""}"
635168e57736a2799ae75274,5049-a94592b8-0b83-49a6-a055-4d834d569987,pilot_10,VLAT_GGR,prolific,survey,16107,,,survey-text,75,1748756,0.0-73.0,1734326.0,1750433.0,"{""TechnicalDifficultiesFreeResp"":"""",""participantAge"":""2001"",""participantYears"":""20"",""participantEd_field"":""Sustainable Food Systems"",""participantComments"":""""}"
635168f17736a2799ae75277,2606-2324c036-7afd-4f62-8c24-5343a248279e,pilot_10,VLAT_GGR,prolific,survey,34789,"{""participantSex"":""Female"",""participantEd"":""Bachelor's degree"",""judgedDifficulty"":""2"",""participantEffort"":""I tried my best on each question"",""technicalDifficultiesBinary"":""No""}","[0,1,2,3,4]",survey-multi-choice,71,2539339,0.0-71.0,,,
635168f87736a2799ae75279,2606-2324c036-7afd-4f62-8c24-5343a248279e,pilot_10,VLAT_GGR,prolific,survey,6793,"{""participantEd_math"":["" Algebra""]}",[0],survey-multi-select,72,2546139,0.0-72.0,,,
635169127736a2799ae75286,8330-519febd8-b43b-4ef8-8403-a9ea7d4c5906,pilot_10,VLAT_GGR,prolific,survey,14684,"{""participantSex"":""Male"",""participantEd"":""Bachelor's degree"",""judgedDifficulty"":""2"",""participantEffort"":""I tried my best on each question"",""technicalDifficultiesBinary"":""No""}","[0,1,2,3,4]",survey-multi-choice,71,2408396,0.0-71.0,,,
6351691b7736a2799ae75288,8330-519febd8-b43b-4ef8-8403-a9ea7d4c5906,pilot_10,VLAT_GGR,prolific,survey,8344,"{""participantEd_math"":["" Algebra"","" Calculus"","" Statistics""]}",[0],survey-multi-select,72,2416744,0.0-72.0,,,
635169317736a2799ae7528f,2606-2324c036-7afd-4f62-8c24-5343a248279e,pilot_10,VLAT_GGR,prolific,survey,57423,,,survey-text,73,2603571,0.0-73.0,2548506.100000024,2605929.2999999523,"{""TechnicalDifficultiesFreeResp"":""None. Thank you!"",""participantAge"":""1986"",""participantYears"":""36"",""participantEd_field"":""IT management"",""participantComments"":""Thank you!""}"
6351693a7736a2799ae75292,8330-519febd8-b43b-4ef8-8403-a9ea7d4c5906,pilot_10,VLAT_GGR,prolific,survey,30991,,,survey-text,73,2447742,0.0-73.0,2417859.0,2448849.7999999523,"{""TechnicalDifficultiesFreeResp"":""N/A"",""participantAge"":""1992"",""participantYears"":""30"",""participantEd_field"":""Cybersecurity"",""participantComments"":""Everything worked very well in this study. Thank you for the opportunity to participate!""}"
63516a417736a2799ae752ca,6777-54deba18-315c-4e17-bebe-614935307c40,pilot_10,VLAT_GGR,prolific,survey,44464,"{""participantSex"":""Male"",""participantEd"":""Bachelor's degree"",""judgedDifficulty"":""3"",""participantEffort"":""I tried my best on each question"",""technicalDifficultiesBinary"":""No""}","[0,1,2,3,4]",survey-multi-choice,72,2620557,0.0-71.0,,,
63516a6f7736a2799ae752d2,6777-54deba18-315c-4e17-bebe-614935307c40,pilot_10,VLAT_GGR,prolific,survey,46272,"{""participantEd_math"":["" Algebra"","" Calculus"","" Statistics""]}",[0],survey-multi-select,73,2667180,0.0-72.0,,,
63516a967736a2799ae752db,6777-54deba18-315c-4e17-bebe-614935307c40,pilot_10,VLAT_GGR,prolific,survey,38365,,,survey-text,74,2705715,0.0-73.0,2704040.0,2742405.0,"{""TechnicalDifficultiesFreeResp"":"""",""participantAge"":""1996"",""participantYears"":""26"",""participantEd_field"":""Information Technology"",""participantComments"":""""}"
63516b427736a2799ae752fc,9379-473a5f85-faef-48f2-8b03-7246790d32cf,pilot_10,VLAT_GGR,prolific,survey,24378,"{""participantSex"":""Female"",""participantEd"":""High school graduate, diploma or equivalent"",""judgedDifficulty"":""4"",""participantEffort"":""I tried my best on each question"",""technicalDifficultiesBinary"":""No""}","[0,1,2,3,4]",survey-multi-choice,71,2153834,0.0-71.0,,,
63516b487736a2799ae752fe,4093-d2ba4e1c-2756-4f05-beef-07050d23c2ee,pilot_10,VLAT_GGR,prolific,survey,50171,"{""participantSex"":""Male"",""participantEd"":""Master's degree"",""judgedDifficulty"":""4"",""participantEffort"":""I tried my best on each question"",""technicalDifficultiesBinary"":""No""}","[0,1,2,3,4]",survey-multi-choice,74,2164334,0.0-71.0,,,
63516b4c7736a2799ae752ff,9379-473a5f85-faef-48f2-8b03-7246790d32cf,pilot_10,VLAT_GGR,prolific,survey,9264,"{""participantEd_math"":["" Algebra""]}",[0],survey-multi-select,72,2163103,0.0-72.0,,,
63516b587736a2799ae75300,4093-d2ba4e1c-2756-4f05-beef-07050d23c2ee,pilot_10,VLAT_GGR,prolific,survey,16124,"{""participantEd_math"":["" Statistics""]}",[0],survey-multi-select,75,2180463,0.0-72.0,,,
63516b647736a2799ae75301,9379-473a5f85-faef-48f2-8b03-7246790d32cf,pilot_10,VLAT_GGR,prolific,survey,24467,,,survey-text,73,2187577,0.0-73.0,2168058.100000009,2192524.900000006,"{""TechnicalDifficultiesFreeResp"":"""",""participantAge"":""1981"",""participantYears"":""40"",""participantEd_field"":""Liberal Arts"",""participantComments"":""no""}"
63516bdb7736a2799ae75311,4093-d2ba4e1c-2756-4f05-beef-07050d23c2ee,pilot_10,VLAT_GGR,prolific,survey,131100,,,survey-text,76,2311565,0.0-73.0,2182440.0,2313540.4000000004,"{""TechnicalDifficultiesFreeResp"":""The only issues I had is the print for many of the graphs was very small and difficult to read."",""participantAge"":""1955"",""participantYears"":""67"",""participantEd_field"":""Master's of Public Administration"",""participantComments"":""I enjoyed taking part in the study.  It kept me on my toes and my brain working.  Thank you for the opportunity.""}"
63516bdf7736a2799ae75312,6094-09c94aa9-719a-4371-b1db-3f658d34ec85,pilot_10,VLAT_GGR,prolific,survey,17662,"{""participantSex"":""Male"",""participantEd"":""Bachelor's degree"",""judgedDifficulty"":""3"",""participantEffort"":""I tried my best on most questions"",""technicalDifficultiesBinary"":""No""}","[0,1,2,3,4]",survey-multi-choice,71,2690290,0.0-71.0,,,
63516beb7736a2799ae75314,6094-09c94aa9-719a-4371-b1db-3f658d34ec85,pilot_10,VLAT_GGR,prolific,survey,11267,"{""participantEd_math"":["" Algebra"","" Calculus"","" Statistics""]}",[0],survey-multi-select,72,2701562,0.0-72.0,,,
63516c157736a2799ae75319,6094-09c94aa9-719a-4371-b1db-3f658d34ec85,pilot_10,VLAT_GGR,prolific,survey,42011,,,survey-text,73,2743578,0.0-73.0,2703347.899999976,2745358.7000000477,"{""TechnicalDifficultiesFreeResp"":"""",""participantAge"":""1984"",""participantYears"":""38"",""participantEd_field"":""Accounting "",""participantComments"":""Thank you. This was interesting""}"
63516d337736a2799ae7532d,7525-1b7e30d2-c922-4acd-9e84-c3fcab34cd88,pilot_10,VLAT_GGR,prolific,survey,29046,"{""participantSex"":""Female"",""participantEd"":""High school graduate, diploma or equivalent"",""judgedDifficulty"":""3"",""participantEffort"":""I tried my best on each question"",""technicalDifficultiesBinary"":""No""}","[0,1,2,3,4]",survey-multi-choice,71,2902946,0.0-71.0,,,
63516d3d7736a2799ae7532f,7525-1b7e30d2-c922-4acd-9e84-c3fcab34cd88,pilot_10,VLAT_GGR,prolific,survey,9818,"{""participantEd_math"":["" Algebra""]}",[0],survey-multi-select,72,2912769,0.0-72.0,,,
63516d547736a2799ae75333,7525-1b7e30d2-c922-4acd-9e84-c3fcab34cd88,pilot_10,VLAT_GGR,prolific,survey,23689,,,survey-text,73,2936466,0.0-73.0,2918386.599999994,2942076.0,"{""TechnicalDifficultiesFreeResp"":"""",""participantAge"":""1985"",""participantYears"":""37"",""participantEd_field"":"""",""participantComments"":""""}"
63516e9d7736a2799ae7533d,1501-7fe3f688-e614-402d-a262-9453e1958e10,pilot_10,VLAT_GGR,prolific,survey,34664,"{""participantSex"":""Female"",""participantEd"":""Associate degree"",""judgedDifficulty"":""4"",""participantEffort"":""I tried my best on each question"",""technicalDifficultiesBinary"":""No""}","[0,1,2,3,4]",survey-multi-choice,71,3531018,0.0-71.0,,,
63516eb07736a2799ae75340,1501-7fe3f688-e614-402d-a262-9453e1958e10,pilot_10,VLAT_GGR,prolific,survey,18705,"{""participantEd_math"":["" Algebra"","" Statistics""]}",[0],survey-multi-select,72,3549734,0.0-72.0,,,
63516ee87736a2799ae75343,1501-7fe3f688-e614-402d-a262-9453e1958e10,pilot_10,VLAT_GGR,prolific,survey,56692,,,survey-text,73,3606434,0.0-73.0,3551722.9000000358,3608414.4000000358,"{""TechnicalDifficultiesFreeResp"":"""",""participantAge"":""1956"",""participantYears"":""65"",""participantEd_field"":""accounting"",""participantComments"":""It was difficult to read the small writing on the qraphs.""}"
635172ba7736a2799ae75368,1200-e435fe35-071b-462e-9b05-cc9f79fcadd2,pilot_10,VLAT_GGR,prolific,survey,15469,"{""participantSex"":""Male"",""participantEd"":""High school graduate, diploma or equivalent"",""judgedDifficulty"":""4"",""participantEffort"":""I tried my best on each question"",""technicalDifficultiesBinary"":""No""}","[0,1,2,3,4]",survey-multi-choice,71,3980778,0.0-71.0,,,
635172c07736a2799ae75369,1200-e435fe35-071b-462e-9b05-cc9f79fcadd2,pilot_10,VLAT_GGR,prolific,survey,5638,"{""participantEd_math"":["" Algebra"","" Calculus""]}",[0],survey-multi-select,72,3986421,0.0-72.0,,,
635172c97736a2799ae7536a,1200-e435fe35-071b-462e-9b05-cc9f79fcadd2,pilot_10,VLAT_GGR,prolific,survey,9508,,,survey-text,73,3995935,0.0-73.0,3990062.200000018,3999570.5,"{""TechnicalDifficultiesFreeResp"":"""",""participantAge"":"""",""participantYears"":"""",""participantEd_field"":"""",""participantComments"":""""}"
635186d97736a2799ae753d8,6363-08cec25a-0b4f-4081-8e00-6bf45ac37b52,pilot_10,VLAT_GGR,prolific,survey,20399,"{""participantSex"":""Female"",""participantEd"":""High school graduate, diploma or equivalent"",""judgedDifficulty"":""7"",""participantEffort"":""I tried my best on each question"",""technicalDifficultiesBinary"":""No""}","[0,1,2,3,4]",survey-multi-choice,72,851879,0.0-71.0,,,
635186de7736a2799ae753d9,6363-08cec25a-0b4f-4081-8e00-6bf45ac37b52,pilot_10,VLAT_GGR,prolific,survey,4938,"{""participantEd_math"":["" None""]}",[0],survey-multi-select,73,856823,0.0-72.0,,,
635186ee7736a2799ae753de,6363-08cec25a-0b4f-4081-8e00-6bf45ac37b52,pilot_10,VLAT_GGR,prolific,survey,16379,,,survey-text,74,873213,0.0-73.0,860063.0,876442.0,"{""TechnicalDifficultiesFreeResp"":"""",""participantAge"":""1968"",""participantYears"":""54"",""participantEd_field"":"""",""participantComments"":""""}"
635188f17736a2799ae75442,0153-5dfa61b5-d1d8-45e9-af1a-f522e2b381ca,pilot_10,VLAT_GGR,prolific,survey,17709,"{""participantSex"":""Male"",""participantEd"":""Associate degree"",""judgedDifficulty"":""2"",""participantEffort"":""I tried my best on most questions"",""technicalDifficultiesBinary"":""No""}","[0,1,2,3,4]",survey-multi-choice,71,1056779,0.0-71.0,,,
635188f77736a2799ae75445,0153-5dfa61b5-d1d8-45e9-af1a-f522e2b381ca,pilot_10,VLAT_GGR,prolific,survey,5804,"{""participantEd_math"":["" Algebra"","" Statistics""]}",[0],survey-multi-select,72,1062590,0.0-72.0,,,
635189037736a2799ae75447,0153-5dfa61b5-d1d8-45e9-af1a-f522e2b381ca,pilot_10,VLAT_GGR,prolific,survey,11743,,,survey-text,73,1074338,0.0-73.0,1066073.400000006,1077815.900000006,"{""TechnicalDifficultiesFreeResp"":"""",""participantAge"":""1994"",""participantYears"":""28"",""participantEd_field"":""Graphic Design"",""participantComments"":""""}"
63518b727736a2799ae754f4,3421-b7e2e3b0-68f1-4171-afa9-bee16c9b4bb1,pilot_10,VLAT_GGR,prolific,survey,14365,"{""participantSex"":""Female"",""participantEd"":""Bachelor's degree"",""judgedDifficulty"":""5"",""participantEffort"":""I tried my best on each question"",""technicalDifficultiesBinary"":""No""}","[0,1,2,3,4]",survey-multi-choice,71,1055631,0.0-71.0,,,
63518b787736a2799ae754f6,3421-b7e2e3b0-68f1-4171-afa9-bee16c9b4bb1,pilot_10,VLAT_GGR,prolific,survey,5838,"{""participantEd_math"":["" Algebra"","" Statistics""]}",[0],survey-multi-select,72,1061479,0.0-72.0,,,
63518ba07736a2799ae75507,3421-b7e2e3b0-68f1-4171-afa9-bee16c9b4bb1,pilot_10,VLAT_GGR,prolific,survey,40236,,,survey-text,73,1101725,0.0-73.0,1063736.0,1103971.8999999762,"{""TechnicalDifficultiesFreeResp"":"""",""participantAge"":""1996"",""participantYears"":""26"",""participantEd_field"":""Criminal Justice Administration"",""participantComments"":""Some of the graphs were difficult to tell exact numbers and placements of items.""}"
63518c737736a2799ae75550,6502-e9cee125-24ac-4f47-a4eb-d3adc6b06ac5,pilot_10,VLAT_GGR,prolific,survey,20643,"{""participantSex"":""Female"",""participantEd"":""Bachelor's degree"",""judgedDifficulty"":""2"",""participantEffort"":""I tried my best on each question"",""technicalDifficultiesBinary"":""Yes""}","[0,1,2,3,4]",survey-multi-choice,75,1578655,0.0-71.0,,,
63518c7c7736a2799ae75555,6502-e9cee125-24ac-4f47-a4eb-d3adc6b06ac5,pilot_10,VLAT_GGR,prolific,survey,8425,"{""participantEd_math"":["" Algebra"","" Statistics""]}",[0],survey-multi-select,76,1587084,0.0-72.0,,,
63518cb87736a2799ae7556a,6502-e9cee125-24ac-4f47-a4eb-d3adc6b06ac5,pilot_10,VLAT_GGR,prolific,survey,60200,,,survey-text,77,1647290,0.0-73.0,1588905.599999994,1649105.1999999955,"{""TechnicalDifficultiesFreeResp"":""I got one of the preliminary answers wrong, and the system kicked me out of full-screen mode. I was able to manually turn full-screen back on."",""participantAge"":""1982"",""participantYears"":""40"",""participantEd_field"":""English"",""participantComments"":""This was actually pretty interesting, nice refresher. :)""}"
63518cec7736a2799ae75579,3769-b9f1b9bc-3196-4e62-bd78-7133123a5bdd,pilot_10,VLAT_GGR,prolific,survey,19844,"{""participantSex"":""Female"",""participantEd"":""High school graduate, diploma or equivalent"",""judgedDifficulty"":""3"",""participantEffort"":""I tried my best on each question"",""technicalDifficultiesBinary"":""No""}","[0,1,2,3,4]",survey-multi-choice,71,1961129,0.0-71.0,,,
63518cf17736a2799ae7557c,3769-b9f1b9bc-3196-4e62-bd78-7133123a5bdd,pilot_10,VLAT_GGR,prolific,survey,5552,"{""participantEd_math"":["" Algebra""]}",[0],survey-multi-select,72,1966686,0.0-72.0,,,
63518d067736a2799ae75584,0386-b43507a7-b987-4ea2-9fd5-0d92468abb78,pilot_10,VLAT_GGR,prolific,survey,17202,"{""participantSex"":""Female"",""participantEd"":""Master's degree"",""judgedDifficulty"":""2"",""participantEffort"":""I tried my best on most questions"",""technicalDifficultiesBinary"":""No""}","[0,1,2,3,4]",survey-multi-choice,75,1192260,0.0-71.0,,,
63518d0e7736a2799ae75588,0386-b43507a7-b987-4ea2-9fd5-0d92468abb78,pilot_10,VLAT_GGR,prolific,survey,8252,"{""participantEd_math"":["" Algebra"","" Calculus"","" Statistics""]}",[0],survey-multi-select,76,1200518,0.0-72.0,,,
63518d1d7736a2799ae75591,0386-b43507a7-b987-4ea2-9fd5-0d92468abb78,pilot_10,VLAT_GGR,prolific,survey,14977,,,survey-text,77,1215503,0.0-73.0,1203052.2000000477,1218029.0,"{""TechnicalDifficultiesFreeResp"":"""",""participantAge"":""1986"",""participantYears"":""36"",""participantEd_field"":""Engineering"",""participantComments"":""""}"
63518d237736a2799ae75593,3769-b9f1b9bc-3196-4e62-bd78-7133123a5bdd,pilot_10,VLAT_GGR,prolific,survey,49889,,,survey-text,73,2016583,0.0-73.0,1968279.1999999285,2018168.3999999762,"{""TechnicalDifficultiesFreeResp"":""I did not have any technical difficulties. There were some of the graphs that the words were very small, but I was able to make them out, with effort."",""participantAge"":""1972"",""participantYears"":""50"",""participantEd_field"":""N/A"",""participantComments"":""Thanks""}"
63518e857736a2799ae75611,2629-f1fbe33d-b788-423e-b6cd-e118df1bbbcb,pilot_10,VLAT_GGR,prolific,survey,16016,"{""participantSex"":""Male"",""participantEd"":""Bachelor's degree"",""judgedDifficulty"":""2"",""participantEffort"":""I tried my best on each question"",""technicalDifficultiesBinary"":""No""}","[0,1,2,3,4]",survey-multi-choice,74,976131,0.0-71.0,,,
63518e8c7736a2799ae75614,2629-f1fbe33d-b788-423e-b6cd-e118df1bbbcb,pilot_10,VLAT_GGR,prolific,survey,7281,"{""participantEd_math"":["" Algebra"","" Calculus"","" Statistics""]}",[0],survey-multi-select,75,983416,0.0-72.0,,,
63518ebe7736a2799ae7562b,2629-f1fbe33d-b788-423e-b6cd-e118df1bbbcb,pilot_10,VLAT_GGR,prolific,survey,49764,,,survey-text,76,1033185,0.0-73.0,985786.0,1035550.3999999762,"{""TechnicalDifficultiesFreeResp"":"""",""participantAge"":""1999"",""participantYears"":""22"",""participantEd_field"":""Geology"",""participantComments"":""-""}"
63518f8f7736a2799ae7567b,5704-33ca4866-805c-4f9b-951d-a800eb1e5fe9,pilot_10,VLAT_GGR,prolific,survey,16990,"{""participantSex"":""Male"",""participantEd"":""Associate degree"",""judgedDifficulty"":""3"",""participantEffort"":""I tried my best on each question"",""technicalDifficultiesBinary"":""No""}","[0,1,2,3,4]",survey-multi-choice,71,1690732,0.0-71.0,,,
63518f957736a2799ae7567f,5704-33ca4866-805c-4f9b-951d-a800eb1e5fe9,pilot_10,VLAT_GGR,prolific,survey,6851,"{""participantEd_math"":["" Algebra""]}",[0],survey-multi-select,72,1697589,0.0-72.0,,,
63518fc07736a2799ae75694,5704-33ca4866-805c-4f9b-951d-a800eb1e5fe9,pilot_10,VLAT_GGR,prolific,survey,42714,,,survey-text,73,1740313,0.0-73.0,1698444.0,1741158.199999988,"{""TechnicalDifficultiesFreeResp"":"""",""participantAge"":""1991"",""participantYears"":""30"",""participantEd_field"":""Communications"",""participantComments"":""Thank you for letting me participate. I guess I just hope you have a good day, n' stuff, you know?""}"
635191017736a2799ae75708,9630-c6a4d795-969d-46b4-bd9b-8daf097486d2,pilot_10,VLAT_GGR,prolific,survey,22390,"{""participantSex"":""Female"",""participantEd"":""High school graduate, diploma or equivalent"",""judgedDifficulty"":""2"",""participantEffort"":""I tried my best on each question"",""technicalDifficultiesBinary"":""No""}","[0,1,2,3,4]",survey-multi-choice,71,2038498,0.0-71.0,,,
635191077736a2799ae7570b,9630-c6a4d795-969d-46b4-bd9b-8daf097486d2,pilot_10,VLAT_GGR,prolific,survey,6608,"{""participantEd_math"":["" Algebra"","" Calculus"","" Statistics""]}",[0],survey-multi-select,72,2045123,0.0-72.0,,,
635191197736a2799ae75711,9630-c6a4d795-969d-46b4-bd9b-8daf097486d2,pilot_10,VLAT_GGR,prolific,survey,17395,,,survey-text,73,2062540,0.0-73.0,2046365.6000000238,2063760.4000000358,"{""TechnicalDifficultiesFreeResp"":"""",""participantAge"":""2003"",""participantYears"":""19"",""participantEd_field"":""English"",""participantComments"":""""}"
635191717736a2799ae7572e,3669-87398d40-7d7c-4af6-aad8-a77c18fa24ec,pilot_10,VLAT_GGR,prolific,survey,24778,"{""participantSex"":""Male"",""participantEd"":""Master's degree"",""judgedDifficulty"":""3"",""participantEffort"":""I tried my best on each question"",""technicalDifficultiesBinary"":""No""}","[0,1,2,3,4]",survey-multi-choice,77,1653135,0.0-71.0,,,
635191797736a2799ae7572f,3669-87398d40-7d7c-4af6-aad8-a77c18fa24ec,pilot_10,VLAT_GGR,prolific,survey,8506,"{""participantEd_math"":["" Algebra"","" Calculus""]}",[0],survey-multi-select,78,1661654,0.0-72.0,,,
635191957736a2799ae75739,3669-87398d40-7d7c-4af6-aad8-a77c18fa24ec,pilot_10,VLAT_GGR,prolific,survey,28137,,,survey-text,79,1689801,0.0-73.0,1662756.2000000477,1690892.8999999762,"{""TechnicalDifficultiesFreeResp"":"""",""participantAge"":""1964"",""participantYears"":""57"",""participantEd_field"":""Art"",""participantComments"":""""}"
635191a67736a2799ae7573b,4688-117350e8-1d23-4a5b-a72d-46437be60a8c,pilot_10,VLAT_GGR,prolific,survey,11286,"{""participantSex"":""Male"",""participantEd"":""Bachelor's degree"",""judgedDifficulty"":""3"",""participantEffort"":""I tried my best on each question"",""technicalDifficultiesBinary"":""No""}","[0,1,2,3,4]",survey-multi-choice,73,842924,0.0-71.0,,,
635191ab7736a2799ae7573e,4688-117350e8-1d23-4a5b-a72d-46437be60a8c,pilot_10,VLAT_GGR,prolific,survey,4450,"{""participantEd_math"":["" Algebra"","" Calculus"","" Statistics""]}",[0],survey-multi-select,74,847380,0.0-72.0,,,
635191bc7736a2799ae75740,4688-117350e8-1d23-4a5b-a72d-46437be60a8c,pilot_10,VLAT_GGR,prolific,survey,17772,,,survey-text,75,865159,0.0-73.0,849369.7000000011,867142.1000000015,"{""TechnicalDifficultiesFreeResp"":"""",""participantAge"":""1984"",""participantYears"":""38"",""participantEd_field"":""Computer Science"",""participantComments"":""""}"
635191eb7736a2799ae7574a,7856-b7106145-9be7-4cca-af6d-90ff40bd7464,pilot_10,VLAT_GGR,prolific,survey,31009,"{""participantSex"":""Male"",""participantEd"":""Bachelor's degree"",""judgedDifficulty"":""4"",""participantEffort"":""I tried my best on each question"",""technicalDifficultiesBinary"":""No""}","[0,1,2,3,4]",survey-multi-choice,71,1378792,0.0-71.0,,,
635191f37736a2799ae7574b,7856-b7106145-9be7-4cca-af6d-90ff40bd7464,pilot_10,VLAT_GGR,prolific,survey,8701,"{""participantEd_math"":["" Algebra"","" Calculus"","" Statistics""]}",[0],survey-multi-select,72,1387504,0.0-72.0,,,
6351921f7736a2799ae75755,7856-b7106145-9be7-4cca-af6d-90ff40bd7464,pilot_10,VLAT_GGR,prolific,survey,43365,,,survey-text,73,1430883,0.0-73.0,1391130.5,1434495.1999998093,"{""TechnicalDifficultiesFreeResp"":""na"",""participantAge"":""2003"",""participantYears"":""19"",""participantEd_field"":""finance"",""participantComments"":""no""}"
635193967736a2799ae757ab,7201-7cc9f271-fc89-4836-9fdd-bde47c1e7f42,pilot_10,VLAT_GGR,prolific,survey,32486,"{""participantSex"":""Female"",""participantEd"":""Associate degree"",""judgedDifficulty"":""3"",""participantEffort"":""I tried my best on each question"",""technicalDifficultiesBinary"":""No""}","[0,1,2,3,4]",survey-multi-choice,71,2314175,0.0-71.0,,,
635193a27736a2799ae757ae,7201-7cc9f271-fc89-4836-9fdd-bde47c1e7f42,pilot_10,VLAT_GGR,prolific,survey,12119,"{""participantEd_math"":["" Algebra"","" Calculus"","" Statistics""]}",[0],survey-multi-select,72,2326311,0.0-72.0,,,
63519ae07736a2799ae75802,6293-add7a005-5155-4854-aa47-c1780b51b702,pilot_10,VLAT_GGR,prolific,survey,63881,"{""participantSex"":""Female"",""participantEd"":""Bachelor's degree"",""judgedDifficulty"":""6"",""participantEffort"":""I tried my best on most questions"",""technicalDifficultiesBinary"":""Yes""}","[0,1,2,3,4]",survey-multi-choice,71,4179679,0.0-71.0,,,
63519ae07736a2799ae75803,6293-add7a005-5155-4854-aa47-c1780b51b702,pilot_10,VLAT_GGR,prolific,survey,21519,"{""participantEd_math"":["" Algebra"","" Calculus"","" Statistics""]}",[0],survey-multi-select,72,4201211,0.0-72.0,,,
6351a3d27736a2799ae75874,2819-fc5c5059-24b4-4f8f-9d12-af94f2bbf028,pilot_10,VLAT_GGR,prolific,survey,19347,"{""participantSex"":""Female"",""participantEd"":""Bachelor's degree"",""judgedDifficulty"":""5"",""participantEffort"":""I tried my best on each question"",""technicalDifficultiesBinary"":""No""}","[0,1,2,3,4]",survey-multi-choice,71,2289455,0.0-71.0,,,
6351a3d67736a2799ae75875,2819-fc5c5059-24b4-4f8f-9d12-af94f2bbf028,pilot_10,VLAT_GGR,prolific,survey,4519,"{""participantEd_math"":["" Algebra"","" Calculus"","" Statistics""]}",[0],survey-multi-select,72,2293987,0.0-72.0,,,
6351a42a7736a2799ae75878,2819-fc5c5059-24b4-4f8f-9d12-af94f2bbf028,pilot_10,VLAT_GGR,prolific,survey,83972,,,survey-text,73,2377965,0.0-73.0,6636926.800000191,6720898.600000143,"{""TechnicalDifficultiesFreeResp"":""I will explain this in a separate email, but I experienced a lot of technical difficulties."",""participantAge"":""2001"",""participantYears"":""21"",""participantEd_field"":""Communications"",""participantComments"":""I really enjoyed the study!""}"
6351a5907736a2799ae7588b,2370-ae250f7d-d468-4ee7-b42c-b56516030d7e,pilot_10,VLAT_GGR,prolific,survey,30537,"{""participantSex"":""Female"",""participantEd"":""Bachelor's degree"",""judgedDifficulty"":""2"",""participantEffort"":""I tried my best on each question"",""technicalDifficultiesBinary"":""Yes""}","[0,1,2,3,4]",survey-multi-choice,71,2611652,0.0-71.0,,,
6351a59b7736a2799ae7588c,2370-ae250f7d-d468-4ee7-b42c-b56516030d7e,pilot_10,VLAT_GGR,prolific,survey,10391,"{""participantEd_math"":["" Algebra"","" Calculus"","" Statistics""]}",[0],survey-multi-select,72,2622121,0.0-72.0,,,
6351a5f67736a2799ae7588d,2370-ae250f7d-d468-4ee7-b42c-b56516030d7e,pilot_10,VLAT_GGR,prolific,survey,91180,,,survey-text,73,2713348,0.0-73.0,2624951.0000000005,2716130.6999999997,"{""TechnicalDifficultiesFreeResp"":""At the very beginning the server kept timing out for over 40 minutes.  "",""participantAge"":""1970"",""participantYears"":""52"",""participantEd_field"":""Computer Engineering"",""participantComments"":""It was interesting and a bit enjoyable.""}"
6357f9d37ccf4b01762f881a,0213-090a3e7a-ac5d-4f18-9210-b757ca7f51c3,pilot_10,VLAT_GGR,prolific,survey,10627,"{""participantSex"":""Male"",""participantEd"":""Master's degree"",""judgedDifficulty"":""4"",""participantEffort"":""I tried my best on each question"",""technicalDifficultiesBinary"":""No""}","[0,1,2,3,4]",survey-multi-choice,71,837329,0.0-71.0,,,
6357f9d97ccf4b01762f8820,0213-090a3e7a-ac5d-4f18-9210-b757ca7f51c3,pilot_10,VLAT_GGR,prolific,survey,5683,"{""participantEd_math"":["" Algebra"","" Calculus"","" Statistics""]}",[0],survey-multi-select,72,843017,0.0-72.0,,,
6357f9e97ccf4b01762f8834,0213-090a3e7a-ac5d-4f18-9210-b757ca7f51c3,pilot_10,VLAT_GGR,prolific,survey,16105,,,survey-text,73,859128,0.0-73.0,844757.1000000238,860862.3000000119,"{""TechnicalDifficultiesFreeResp"":""None"",""participantAge"":""1977"",""participantYears"":""45"",""participantEd_field"":""Education"",""participantComments"":""No""}"
6357fb2b7ccf4b01762f89b8,7673-cd1b3e13-a5fa-45e4-9550-4eb96eec5d51,pilot_10,VLAT_GGR,prolific,survey,27305,"{""participantSex"":""Female"",""participantEd"":""High school graduate, diploma or equivalent"",""judgedDifficulty"":""3"",""participantEffort"":""I tried my best on each question"",""technicalDifficultiesBinary"":""Yes""}","[0,1,2,3,4]",survey-multi-choice,71,968381,0.0-71.0,,,
6357fb317ccf4b01762f89c1,7673-cd1b3e13-a5fa-45e4-9550-4eb96eec5d51,pilot_10,VLAT_GGR,prolific,survey,6189,"{""participantEd_math"":["" Algebra"","" Calculus""]}",[0],survey-multi-select,72,974575,0.0-72.0,,,
6357fb3b7ccf4b01762f89cb,7052-945eec66-0eda-4257-826c-2193a8fd2bae,pilot_10,VLAT_GGR,prolific,survey,13858,"{""participantSex"":""Male"",""participantEd"":""Bachelor's degree"",""judgedDifficulty"":""3"",""participantEffort"":""I tried my best on each question"",""technicalDifficultiesBinary"":""No""}","[0,1,2,3,4]",survey-multi-choice,71,999917,0.0-71.0,,,
6357fb3f7ccf4b01762f89d1,7052-945eec66-0eda-4257-826c-2193a8fd2bae,pilot_10,VLAT_GGR,prolific,survey,4835,"{""participantEd_math"":["" Algebra"","" Calculus"","" Statistics""]}",[0],survey-multi-select,72,1004754,0.0-72.0,,,
6357fb5a7ccf4b01762f89ef,7673-cd1b3e13-a5fa-45e4-9550-4eb96eec5d51,pilot_10,VLAT_GGR,prolific,survey,40365,,,survey-text,73,1014947,0.0-73.0,978037.5,1018402.1999999881,"{""TechnicalDifficultiesFreeResp"":""At first, for a while, the website wouldn't load."",""participantAge"":""2002"",""participantYears"":""20"",""participantEd_field"":""currently in Chemical Engineering"",""participantComments"":""""}"
6357fb807ccf4b01762f8a16,7052-945eec66-0eda-4257-826c-2193a8fd2bae,pilot_10,VLAT_GGR,prolific,survey,64813,,,survey-text,73,1069571,0.0-73.0,1006111.3999996185,1070923.8999996185,"{""TechnicalDifficultiesFreeResp"":""I had difficulties loading the survey but once it loaded there were no further issues."",""participantAge"":""1984"",""participantYears"":""38"",""participantEd_field"":""Political science"",""participantComments"":""I enjoyed the survey and it was interesting to see how hard it was to discern some of the graphs. I particularly had trouble with the unemployment graph of USA. The blue dots for the key were too small and I couldn't make out the colors that well to really see the differences in the darker blues.""}"
6357fbed7ccf4b01762f8a98,8112-973307e8-4b9e-4461-84ce-238f6851423f,pilot_10,VLAT_GGR,prolific,survey,14366,"{""participantSex"":""Male"",""participantEd"":""Bachelor's degree"",""judgedDifficulty"":""2"",""participantEffort"":""I tried my best on most questions"",""technicalDifficultiesBinary"":""No""}","[0,1,2,3,4]",survey-multi-choice,71,1419236,0.0-71.0,,,
6357fbf47ccf4b01762f8aa3,8112-973307e8-4b9e-4461-84ce-238f6851423f,pilot_10,VLAT_GGR,prolific,survey,7750,"{""participantEd_math"":["" Algebra"","" Calculus"","" Statistics""]}",[0],survey-multi-select,72,1426988,0.0-72.0,,,
6357fc047ccf4b01762f8aba,8112-973307e8-4b9e-4461-84ce-238f6851423f,pilot_10,VLAT_GGR,prolific,survey,15939,,,survey-text,73,1442932,0.0-73.0,1428035.0,1443974.0,"{""TechnicalDifficultiesFreeResp"":"""",""participantAge"":""1978"",""participantYears"":""44"",""participantEd_field"":""English"",""participantComments"":""""}"
6357fc5f7ccf4b01762f8b27,2678-38a6a1b6-1005-496b-8a7d-01269738bd73,pilot_10,VLAT_GGR,prolific,survey,17314,"{""participantSex"":""Male"",""participantEd"":""High school graduate, diploma or equivalent"",""judgedDifficulty"":""3"",""participantEffort"":""I tried my best on each question"",""technicalDifficultiesBinary"":""No""}","[0,1,2,3,4]",survey-multi-choice,71,1268049,0.0-71.0,,,
6357fc647ccf4b01762f8b2f,2678-38a6a1b6-1005-496b-8a7d-01269738bd73,pilot_10,VLAT_GGR,prolific,survey,4661,"{""participantEd_math"":["" Algebra""]}",[0],survey-multi-select,72,1272722,0.0-72.0,,,
6357fc677ccf4b01762f8b33,7197-0074ae19-8456-4585-b42c-a507bd25aac3,pilot_10,VLAT_GGR,prolific,survey,19725,"{""participantSex"":""Male"",""participantEd"":""Bachelor's degree"",""judgedDifficulty"":""3"",""participantEffort"":""I tried my best on each question"",""technicalDifficultiesBinary"":""Yes""}","[0,1,2,3,4]",survey-multi-choice,77,1454043,0.0-71.0,,,
6357fc6f7ccf4b01762f8b41,7197-0074ae19-8456-4585-b42c-a507bd25aac3,pilot_10,VLAT_GGR,prolific,survey,7982,"{""participantEd_math"":["" Algebra""]}",[0],survey-multi-select,78,1462034,0.0-72.0,,,
6357fc747ccf4b01762f8b48,2678-38a6a1b6-1005-496b-8a7d-01269738bd73,pilot_10,VLAT_GGR,prolific,survey,16435,,,survey-text,73,1289169,0.0-73.0,1274694.0999999642,1291128.699999988,"{""TechnicalDifficultiesFreeResp"":"""",""participantAge"":""1987"",""participantYears"":""35"",""participantEd_field"":"""",""participantComments"":""None.""}"
6357fc997ccf4b01762f8b75,3534-25720c38-c910-4a45-a2c2-3c2f41588b13,pilot_10,VLAT_GGR,prolific,survey,10868,"{""participantSex"":""Male"",""participantEd"":""Have not graduated high school"",""judgedDifficulty"":""5"",""participantEffort"":""I tried my best on each question"",""technicalDifficultiesBinary"":""No""}","[0,1,2,3,4]",survey-multi-choice,81,1572745,0.0-71.0,,,
6357fc9e7ccf4b01762f8b7a,3534-25720c38-c910-4a45-a2c2-3c2f41588b13,pilot_10,VLAT_GGR,prolific,survey,5185,"{""participantEd_math"":["" None""]}",[0],survey-multi-select,82,1577937,0.0-72.0,,,
6357fca97ccf4b01762f8b84,7197-0074ae19-8456-4585-b42c-a507bd25aac3,pilot_10,VLAT_GGR,prolific,survey,57274,,,survey-text,79,1519315,0.0-73.0,1462986.9000000954,1520260.4000000954,"{""TechnicalDifficultiesFreeResp"":""I had an issue with the page loading initially but after a few minutes it loaded fine. "",""participantAge"":""1985"",""participantYears"":""36"",""participantEd_field"":""Business"",""participantComments"":""It was very thought provoking to see how graphs can be used to be to manipulate or advertise. ""}"
6357fcdb7ccf4b01762f8bbe,3534-25720c38-c910-4a45-a2c2-3c2f41588b13,pilot_10,VLAT_GGR,prolific,survey,61386,,,survey-text,83,1639331,0.0-73.0,1586200.699999988,1647586.599999994,"{""TechnicalDifficultiesFreeResp"":"""",""participantAge"":""1992"",""participantYears"":""30"",""participantEd_field"":""None"",""participantComments"":""I enjoyed it/thought it was worth it overall and no complaints. I am a bit rusty on statistics and graphs, specifically since this is an early hour for me + I never really understood some graph formats to begin with.""}"
6357fd067ccf4b01762f8bec,5787-8ca6dae0-0171-4a94-b79b-9d6b57dedffc,pilot_10,VLAT_GGR,prolific,survey,25342,"{""participantSex"":""Female"",""participantEd"":""High school graduate, diploma or equivalent"",""judgedDifficulty"":""4"",""participantEffort"":""I tried my best on each question"",""technicalDifficultiesBinary"":""No""}","[0,1,2,3,4]",survey-multi-choice,71,1674194,0.0-71.0,,,
6357fd077ccf4b01762f8bf0,4829-ad422ef7-598f-477b-8bdb-77f9d437ca20,pilot_10,VLAT_GGR,prolific,survey,11522,"{""participantSex"":""Male"",""participantEd"":""High school graduate, diploma or equivalent"",""judgedDifficulty"":""2"",""participantEffort"":""I tried my best on each question"",""technicalDifficultiesBinary"":""No""}","[0,1,2,3,4]",survey-multi-choice,73,908174,0.0-71.0,,,
6357fd0a7ccf4b01762f8bf6,4829-ad422ef7-598f-477b-8bdb-77f9d437ca20,pilot_10,VLAT_GGR,prolific,survey,3487,"{""participantEd_math"":["" None""]}",[0],survey-multi-select,74,911664,0.0-72.0,,,
6357fd0c7ccf4b01762f8bf9,5787-8ca6dae0-0171-4a94-b79b-9d6b57dedffc,pilot_10,VLAT_GGR,prolific,survey,6326,"{""participantEd_math"":["" Algebra""]}",[0],survey-multi-select,72,1680524,0.0-72.0,,,
6357fd137ccf4b01762f8c03,4829-ad422ef7-598f-477b-8bdb-77f9d437ca20,pilot_10,VLAT_GGR,prolific,survey,9341,,,survey-text,75,921008,0.0-73.0,912145.600000143,921486.2000000477,"{""TechnicalDifficultiesFreeResp"":"""",""participantAge"":""2001"",""participantYears"":""20"",""participantEd_field"":"""",""participantComments"":""""}"
6357fd3f7ccf4b01762f8c31,3045-3201a483-1276-48fd-a607-9a02128df70e,pilot_10,VLAT_GGR,prolific,survey,24033,"{""participantSex"":""Female"",""participantEd"":""Bachelor's degree"",""judgedDifficulty"":""4"",""participantEffort"":""I tried my best on each question"",""technicalDifficultiesBinary"":""No""}","[0,1,2,3,4]",survey-multi-choice,71,1776040,0.0-71.0,,,
6357fd457ccf4b01762f8c36,3045-3201a483-1276-48fd-a607-9a02128df70e,pilot_10,VLAT_GGR,prolific,survey,6640,"{""participantEd_math"":["" Algebra"","" Statistics""]}",[0],survey-multi-select,72,1782692,0.0-72.0,,,
6357fd567ccf4b01762f8c4b,5787-8ca6dae0-0171-4a94-b79b-9d6b57dedffc,pilot_10,VLAT_GGR,prolific,survey,73771,,,survey-text,73,1754301,0.0-73.0,1682122.2000000477,1755893.1000000238,"{""TechnicalDifficultiesFreeResp"":""There was no difficulties in the actual survey. Initially the webpage would not load but I waited about 10 minutes and tried to click the link to open the study again and it worked."",""participantAge"":""1986"",""participantYears"":""36"",""participantEd_field"":""Political Science (didn't finish)"",""participantComments"":""It was interesting. Some of those graphs are nightmares to read.""}"
6357fd707ccf4b01762f8c6f,3045-3201a483-1276-48fd-a607-9a02128df70e,pilot_10,VLAT_GGR,prolific,survey,42938,,,survey-text,73,1825634,0.0-73.0,1784071.6999998093,1827009.6000003815,"{""TechnicalDifficultiesFreeResp"":""When the I first tried to load the survey it wouldn't load then I waited a bit and it loaded."",""participantAge"":""1980"",""participantYears"":""41"",""participantEd_field"":""Sociology"",""participantComments"":""Thanks!""}"
6357fd747ccf4b01762f8c75,6283-d69e49ea-fd21-42af-bdb9-7ca37f986b50,pilot_10,VLAT_GGR,prolific,survey,26986,"{""participantSex"":""Male"",""participantEd"":""High school graduate, diploma or equivalent"",""judgedDifficulty"":""2"",""participantEffort"":""I tried my best on each question"",""technicalDifficultiesBinary"":""No""}","[0,1,2,3,4]",survey-multi-choice,71,1834666,0.0-71.0,,,
6357fd847ccf4b01762f8c87,3191-5983086f-04c4-4082-b8f9-c05164d7e478,pilot_10,VLAT_GGR,prolific,survey,17863,"{""participantSex"":""Female"",""participantEd"":""Bachelor's degree"",""judgedDifficulty"":""2"",""participantEffort"":""I tried my best on each question"",""technicalDifficultiesBinary"":""No""}","[0,1,2,3,4]",survey-multi-choice,77,1809645,0.0-71.0,,,
6357fd887ccf4b01762f8c8a,6283-d69e49ea-fd21-42af-bdb9-7ca37f986b50,pilot_10,VLAT_GGR,prolific,survey,20115,"{""participantEd_math"":["" Algebra""]}",[0],survey-multi-select,72,1854784,0.0-72.0,,,
6357fd8a7ccf4b01762f8c8c,4493-f7e62397-ad11-4776-a12e-ee1eab71b0a7,pilot_10,VLAT_GGR,prolific,survey,32517,"{""participantSex"":""Female"",""participantEd"":""High school graduate, diploma or equivalent"",""judgedDifficulty"":""5"",""participantEffort"":""I tried my best on each question"",""technicalDifficultiesBinary"":""No""}","[0,1,2,3,4]",survey-multi-choice,71,1680309,0.0-71.0,,,
6357fd8c7ccf4b01762f8c8e,3191-5983086f-04c4-4082-b8f9-c05164d7e478,pilot_10,VLAT_GGR,prolific,survey,7964,"{""participantEd_math"":["" Algebra"","" Calculus"","" Statistics""]}",[0],survey-multi-select,78,1817616,0.0-72.0,,,
6357fd9f7ccf4b01762f8ca0,4493-f7e62397-ad11-4776-a12e-ee1eab71b0a7,pilot_10,VLAT_GGR,prolific,survey,21088,"{""participantEd_math"":["" Algebra""]}",[0],survey-multi-select,72,1701404,0.0-72.0,,,
6357fdbb7ccf4b01762f8cbc,3191-5983086f-04c4-4082-b8f9-c05164d7e478,pilot_10,VLAT_GGR,prolific,survey,46520,,,survey-text,79,1864143,0.0-73.0,1818898.2000000477,1865418.0999999046,"{""TechnicalDifficultiesFreeResp"":"""",""participantAge"":""1982"",""participantYears"":""39"",""participantEd_field"":""ecology"",""participantComments"":""Should I be embarrassed with how I interpreted the graphs?""}"
6357fdbd7ccf4b01762f8cc0,4493-f7e62397-ad11-4776-a12e-ee1eab71b0a7,pilot_10,VLAT_GGR,prolific,survey,29904,,,survey-text,73,1731316,0.0-73.0,1705340.0999999642,1735244.300000012,"{""TechnicalDifficultiesFreeResp"":"""",""participantAge"":""1966"",""participantYears"":""56"",""participantEd_field"":""N/A"",""participantComments"":""""}"
6357fde57ccf4b01762f8ce7,2620-49c3e5a1-0b18-459a-8a88-1142ee0bbe8a,pilot_10,VLAT_GGR,prolific,survey,9830,"{""participantSex"":""Female"",""participantEd"":""Bachelor's degree"",""judgedDifficulty"":""4"",""participantEffort"":""I tried my best on each question"",""technicalDifficultiesBinary"":""No""}","[0,1,2,3,4]",survey-multi-choice,71,1660218,0.0-71.0,,,
6357fdeb7ccf4b01762f8cf0,2620-49c3e5a1-0b18-459a-8a88-1142ee0bbe8a,pilot_10,VLAT_GGR,prolific,survey,6014,"{""participantEd_math"":["" Statistics""]}",[0],survey-multi-select,72,1666237,0.0-72.0,,,
6357fdfc7ccf4b01762f8d02,2620-49c3e5a1-0b18-459a-8a88-1142ee0bbe8a,pilot_10,VLAT_GGR,prolific,survey,16897,,,survey-text,73,1683139,0.0-73.0,1667823.0,1684720.099999994,"{""TechnicalDifficultiesFreeResp"":"""",""participantAge"":""1980"",""participantYears"":""42"",""participantEd_field"":""journalism"",""participantComments"":""""}"
6357fe017ccf4b01762f8d0b,6283-d69e49ea-fd21-42af-bdb9-7ca37f986b50,pilot_10,VLAT_GGR,prolific,survey,121124,,,survey-text,73,1975912,0.0-73.0,1857482.4000000358,1978606.5,"{""TechnicalDifficultiesFreeResp"":""tried to start on Edge at first, but it wouldn't work right. i downloaded chrome and it works now."",""participantAge"":""1985"",""participantYears"":""36"",""participantEd_field"":""none"",""participantComments"":""I realized after the question about the amount of ment to women  int he graph that there were actually 20 more men than women.I just didnn't think right in my head at first.""}"
6357fe167ccf4b01762f8d1f,4717-83e98c38-8a0d-4d55-93f5-8f86419354ed,pilot_10,VLAT_GGR,prolific,survey,18061,"{""participantSex"":""Female"",""participantEd"":""High school graduate, diploma or equivalent"",""judgedDifficulty"":""2"",""participantEffort"":""I tried my best on each question"",""technicalDifficultiesBinary"":""Yes""}","[0,1,2,3,4]",survey-multi-choice,71,1444972,0.0-71.0,,,
6357fe1d7ccf4b01762f8d26,5908-ec0ad6e8-e934-4374-b152-70eea13690b2,pilot_10,VLAT_GGR,prolific,survey,19999,"{""participantSex"":""Female"",""participantEd"":""High school graduate, diploma or equivalent"",""judgedDifficulty"":""2"",""participantEffort"":""I tried my best on each question"",""technicalDifficultiesBinary"":""No""}","[0,1,2,3,4]",survey-multi-choice,71,1721275,0.0-71.0,,,
6357fe1d7ccf4b01762f8d27,4717-83e98c38-8a0d-4d55-93f5-8f86419354ed,pilot_10,VLAT_GGR,prolific,survey,7309,"{""participantEd_math"":["" None""]}",[0],survey-multi-select,72,1452285,0.0-72.0,,,
6357fe217ccf4b01762f8d2e,2786-64de48eb-714b-4039-8043-45807e69e81c,pilot_10,VLAT_GGR,prolific,survey,21453,"{""participantSex"":""Male"",""participantEd"":""High school graduate, diploma or equivalent"",""judgedDifficulty"":""4"",""participantEffort"":""I tried my best on each question"",""technicalDifficultiesBinary"":""No""}","[0,1,2,3,4]",survey-multi-choice,71,1801830,0.0-71.0,,,
6357fe267ccf4b01762f8d35,5908-ec0ad6e8-e934-4374-b152-70eea13690b2,pilot_10,VLAT_GGR,prolific,survey,9030,"{""participantEd_math"":["" Algebra""]}",[0],survey-multi-select,72,1730317,0.0-72.0,,,
6357fe297ccf4b01762f8d36,2786-64de48eb-714b-4039-8043-45807e69e81c,pilot_10,VLAT_GGR,prolific,survey,8704,"{""participantEd_math"":["" None""]}",[0],survey-multi-select,72,1810542,0.0-72.0,,,
6357fe557ccf4b01762f8d60,9170-9c117970-5f53-4ba0-8f85-3af9e075a61c,pilot_10,VLAT_GGR,prolific,survey,11648,"{""participantSex"":""Male"",""participantEd"":""Bachelor's degree"",""judgedDifficulty"":""3"",""participantEffort"":""I tried my best on each question"",""technicalDifficultiesBinary"":""No""}","[0,1,2,3,4]",survey-multi-choice,71,1473204,0.0-71.0,,,
6357fe5c7ccf4b01762f8d69,9170-9c117970-5f53-4ba0-8f85-3af9e075a61c,pilot_10,VLAT_GGR,prolific,survey,6470,"{""participantEd_math"":["" Algebra"","" Calculus"","" Statistics""]}",[0],survey-multi-select,72,1479684,0.0-72.0,,,
6357fe767ccf4b01762f8d7d,5908-ec0ad6e8-e934-4374-b152-70eea13690b2,pilot_10,VLAT_GGR,prolific,survey,80378,,,survey-text,73,1810709,0.0-73.0,1733805.4000000954,1814183.4000000954,"{""TechnicalDifficultiesFreeResp"":""Only at the beginning. Eventually it loaded."",""participantAge"":""1983"",""participantYears"":""39"",""participantEd_field"":""N/A"",""participantComments"":""Thank you. I appreciate the money and actually enjoyed this study.""}"
6357fe777ccf4b01762f8d7e,2786-64de48eb-714b-4039-8043-45807e69e81c,pilot_10,VLAT_GGR,prolific,survey,77550,,,survey-text,73,1888102,0.0-73.0,1813555.0,1891105.300000012,"{""TechnicalDifficultiesFreeResp"":"""",""participantAge"":""1961"",""participantYears"":""61"",""participantEd_field"":""History"",""participantComments"":""Some graphs are much better than others for ease of getting information""}"
6357fe857ccf4b01762f8d87,9170-9c117970-5f53-4ba0-8f85-3af9e075a61c,pilot_10,VLAT_GGR,prolific,survey,41133,,,survey-text,73,1520828,0.0-73.0,1485101.8000000045,1526234.8999999985,"{""TechnicalDifficultiesFreeResp"":""no"",""participantAge"":""1994"",""participantYears"":""28"",""participantEd_field"":""bachelors degree - computer science"",""participantComments"":""no""}"
6357fea37ccf4b01762f8da0,5767-455e47d0-f697-460e-8566-4bd54af2a547,pilot_10,VLAT_GGR,prolific,survey,18776,"{""participantSex"":""Female"",""participantEd"":""High school graduate, diploma or equivalent"",""judgedDifficulty"":""3"",""participantEffort"":""I tried my best on each question"",""technicalDifficultiesBinary"":""No""}","[0,1,2,3,4]",survey-multi-choice,71,2124665,0.0-71.0,,,
6357fea97ccf4b01762f8da4,5767-455e47d0-f697-460e-8566-4bd54af2a547,pilot_10,VLAT_GGR,prolific,survey,6525,"{""participantEd_math"":["" None""]}",[0],survey-multi-select,72,2131194,0.0-72.0,,,
6357feaa7ccf4b01762f8da6,4717-83e98c38-8a0d-4d55-93f5-8f86419354ed,pilot_10,VLAT_GGR,prolific,survey,141243,,,survey-text,73,1593549,0.0-73.0,1452775.0,1594018.299999997,"{""TechnicalDifficultiesFreeResp"":""It took probably 30-45 minutes to get the study to load. I did send a message regarding this. After 4 browsers on PC and 2 on mobile I finally got it to load. I just hope it didn't time out"",""participantAge"":""1971"",""participantYears"":""51"",""participantEd_field"":""history"",""participantComments"":""I loved this and would absolutely enjoy more of these.\n""}"
6357fec27ccf4b01762f8db9,5767-455e47d0-f697-460e-8566-4bd54af2a547,pilot_10,VLAT_GGR,prolific,survey,25318,,,survey-text,73,2156518,0.0-73.0,2132573.5,2157891.9000000358,"{""TechnicalDifficultiesFreeResp"":"""",""participantAge"":""1972"",""participantYears"":""50"",""participantEd_field"":"""",""participantComments"":""Fun task!""}"
6357fef87ccf4b01762f8def,0676-496008d9-feea-45a5-8fea-d7a2738e0e39,pilot_10,VLAT_GGR,prolific,survey,27486,"{""participantSex"":""Female"",""participantEd"":""Bachelor's degree"",""judgedDifficulty"":""2"",""participantEffort"":""I tried my best on each question"",""technicalDifficultiesBinary"":""No""}","[0,1,2,3,4]",survey-multi-choice,71,1881268,0.0-71.0,,,
6357ff027ccf4b01762f8df7,0676-496008d9-feea-45a5-8fea-d7a2738e0e39,pilot_10,VLAT_GGR,prolific,survey,10073,"{""participantEd_math"":["" Algebra"","" Calculus"","" Statistics""]}",[0],survey-multi-select,72,1891347,0.0-72.0,,,
6357ff807ccf4b01762f8e6b,0676-496008d9-feea-45a5-8fea-d7a2738e0e39,pilot_10,VLAT_GGR,prolific,survey,125778,,,survey-text,73,2017131,0.0-73.0,1892385.200000003,2018163.200000003,"{""TechnicalDifficultiesFreeResp"":""It took more than half an hour for the survey to load, but once it did, there were no issues.  I really wanted to take this one, so I kept checking back! "",""participantAge"":""1964"",""participantYears"":""58"",""participantEd_field"":""Accounting"",""participantComments"":""The study was very interesting.""}"
635800017ccf4b01762f8ee4,3268-11ea76ed-8f6d-4509-8168-d588bb045ea6,pilot_10,VLAT_GGR,prolific,survey,38881,"{""participantSex"":""Female"",""participantEd"":""Master's degree"",""judgedDifficulty"":""3"",""participantEffort"":""I tried my best on most questions"",""technicalDifficultiesBinary"":""Yes""}","[0,1,2,3,4]",survey-multi-choice,74,2496121,0.0-71.0,,,
6358000d7ccf4b01762f8eec,0093-1ca0567e-6df5-4587-b531-81136d6f2cb2,pilot_10,VLAT_GGR,prolific,survey,13681,"{""participantSex"":""Male"",""participantEd"":""Bachelor's degree"",""judgedDifficulty"":""4"",""participantEffort"":""I tried my best on each question"",""technicalDifficultiesBinary"":""No""}","[0,1,2,3,4]",survey-multi-choice,71,1715126,0.0-71.0,,,
6358000f7ccf4b01762f8eee,3268-11ea76ed-8f6d-4509-8168-d588bb045ea6,pilot_10,VLAT_GGR,prolific,survey,13459,"{""participantEd_math"":["" Algebra"","" Calculus""]}",[0],survey-multi-select,75,2509625,0.0-72.0,,,
635800147ccf4b01762f8ef3,0093-1ca0567e-6df5-4587-b531-81136d6f2cb2,pilot_10,VLAT_GGR,prolific,survey,6801,"{""participantEd_math"":["" Algebra"","" Calculus""]}",[0],survey-multi-select,72,1721929,0.0-72.0,,,
635800207ccf4b01762f8eff,1019-88dbb20c-96f3-4c65-8007-835ff1a0cfcc,pilot_10,VLAT_GGR,prolific,survey,24789,"{""participantSex"":""Female"",""participantEd"":""High school graduate, diploma or equivalent"",""judgedDifficulty"":""4"",""participantEffort"":""I tried my best on each question"",""technicalDifficultiesBinary"":""No""}","[0,1,2,3,4]",survey-multi-choice,71,2462261,0.0-71.0,,,
635800287ccf4b01762f8f02,1019-88dbb20c-96f3-4c65-8007-835ff1a0cfcc,pilot_10,VLAT_GGR,prolific,survey,7809,"{""participantEd_math"":["" Algebra""]}",[0],survey-multi-select,72,2470074,0.0-72.0,,,
6358003d7ccf4b01762f8f12,1019-88dbb20c-96f3-4c65-8007-835ff1a0cfcc,pilot_10,VLAT_GGR,prolific,survey,20922,,,survey-text,73,2491000,0.0-73.0,2470580.8,2491502.3,"{""TechnicalDifficultiesFreeResp"":"""",""participantAge"":""1985"",""participantYears"":""37"",""participantEd_field"":"""",""participantComments"":""""}"
6358003e7ccf4b01762f8f14,3268-11ea76ed-8f6d-4509-8168-d588bb045ea6,pilot_10,VLAT_GGR,prolific,survey,47759,,,survey-text,76,2557440,0.0-73.0,2511291.7999999523,2559051.0,"{""TechnicalDifficultiesFreeResp"":""At the beginning of the study, the link wouldn't work."",""participantAge"":""1983"",""participantYears"":""39"",""participantEd_field"":""Education "",""participantComments"":""I hope I did well ""}"
635800577ccf4b01762f8f2b,0093-1ca0567e-6df5-4587-b531-81136d6f2cb2,pilot_10,VLAT_GGR,prolific,survey,67511,,,survey-text,73,1789445,0.0-73.0,1724329.0,1791840.0,"{""TechnicalDifficultiesFreeResp"":""The study wouldn't start on Chrome, oddly enough, but I was able to start it on Firefox."",""participantAge"":""1991"",""participantYears"":""31"",""participantEd_field"":""Computer Science"",""participantComments"":""This was a highly enjoyable and challenging study.""}"
6358008d7ccf4b01762f8f5b,6264-ce434db2-3b77-4523-a0fc-cb5706c50764,pilot_10,VLAT_GGR,prolific,survey,35180,"{""participantSex"":""Female"",""participantEd"":""High school graduate, diploma or equivalent"",""judgedDifficulty"":""3"",""participantEffort"":""I tried my best on most questions"",""technicalDifficultiesBinary"":""No""}","[0,1,2,3,4]",survey-multi-choice,71,2570808,0.0-71.0,,,
635800947ccf4b01762f8f63,6264-ce434db2-3b77-4523-a0fc-cb5706c50764,pilot_10,VLAT_GGR,prolific,survey,6708,"{""participantEd_math"":["" Algebra""]}",[0],survey-multi-select,72,2577525,0.0-72.0,,,
635800da7ccf4b01762f8f9b,9012-58a7407a-1d5a-40e2-b670-4a1e7c382b09,pilot_10,VLAT_GGR,prolific,survey,11159,"{""participantSex"":""Male"",""participantEd"":""Bachelor's degree"",""judgedDifficulty"":""3"",""participantEffort"":""I tried my best on each question"",""technicalDifficultiesBinary"":""No""}","[0,1,2,3,4]",survey-multi-choice,75,848780,0.0-71.0,,,
635800de7ccf4b01762f8fa0,9012-58a7407a-1d5a-40e2-b670-4a1e7c382b09,pilot_10,VLAT_GGR,prolific,survey,3560,"{""participantEd_math"":["" Algebra"","" Calculus"","" Statistics""]}",[0],survey-multi-select,76,852344,0.0-72.0,,,
635800f17ccf4b01762f8fae,6264-ce434db2-3b77-4523-a0fc-cb5706c50764,pilot_10,VLAT_GGR,prolific,survey,92855,,,survey-text,73,2670396,0.0-73.0,2581882.700000003,2674737.299999997,"{""TechnicalDifficultiesFreeResp"":""I had some problems loading the study. Once I started my study I had no problem."",""participantAge"":""1980"",""participantYears"":""42"",""participantEd_field"":""some college- Business Administration "",""participantComments"":""""}"
635800f77ccf4b01762f8fb1,9012-58a7407a-1d5a-40e2-b670-4a1e7c382b09,pilot_10,VLAT_GGR,prolific,survey,25588,,,survey-text,77,877937,0.0-73.0,855258.1999999881,880846.3000000119,"{""TechnicalDifficultiesFreeResp"":""It took considerable time to load, like an hour. But it was loaded when I checked up on it."",""participantAge"":""1991"",""participantYears"":""31"",""participantEd_field"":""Neuroscience"",""participantComments"":""None at this time.""}"
