_id,gameID,iterationName,version,recruitmentPlatform,eventType,startTime,endTime,rt,response_json,response,trial_type,trial_index,time_elapsed,internal_node_id,responses,question_order
62806588e90286112039e614,6365-94bb3b9a-add2-4d79-a45b-12891b09bdfb,pilot_7,GGR_VLAT,sona,survey,10901.10000000894,23225.29999999702,12324,"{""Q0"":""yniu@ucsd.edu""}",yniu@ucsd.edu,survey-text,1,21849,0.0-1.0,,
628065e1e90286112039e615,6923-8e47710d-9252-40ca-b163-e25da667a709,pilot_7,GGR_VLAT,sona,survey,12914.39999999106,18625.19999998808,5711,"{""Q0"":""yniu@ucsd.edu""}",yniu@ucsd.edu,survey-text,1,17932,0.0-1.0,,
62806693e90286112039e61f,0489-97bbb369-d48a-4dcb-9d53-88db35b1ded5,pilot_7,GGR_VLAT,sona,survey,22798.0,35756.0,12958,"{""Q0"":""jayon@ucsd.edu""}",jayon@ucsd.edu,survey-text,1,34758,0.0-1.0,,
628066dae90286112039e624,4443-42492d6d-ba49-401b-b412-662e478de7a2,pilot_7,GGR_VLAT,sona,survey,10250.0,22307.000000000004,12057,"{""Q0"":""jayon@ucsd.edu""}",jayon@ucsd.edu,survey-text,1,21955,0.0-1.0,,
62806ac7e90286112039e69b,6923-8e47710d-9252-40ca-b163-e25da667a709,pilot_7,GGR_VLAT,sona,survey,,,19902,,,survey-multi-choice,72,1272851,0.0-72.0,"{""participantSex"":""Male"",""participantEd"":""Bachelor's degree"",""judgedDifficulty"":""3"",""participantEffort"":""I tried my best on each question"",""technicalDifficultiesBinary"":""No""}","[0,1,2,3,4]"
62806acee90286112039e69d,6923-8e47710d-9252-40ca-b163-e25da667a709,pilot_7,GGR_VLAT,sona,survey,,,6546,,,survey-multi-select,73,1279404,0.0-73.0,"{""participantEd_math"":["" Algebra"","" Calculus"","" Statistics""]}",[0]
62806ae2e90286112039e69e,4443-42492d6d-ba49-401b-b412-662e478de7a2,pilot_7,GGR_VLAT,sona,survey,,,20683,,,survey-multi-choice,72,1054260,0.0-72.0,"{""participantSex"":""Female"",""participantEd"":""High school graduate, diploma or equivalent"",""judgedDifficulty"":""1"",""participantEffort"":""I tried my best on most questions"",""technicalDifficultiesBinary"":""No""}","[0,1,2,3,4]"
62806ae8e90286112039e69f,4443-42492d6d-ba49-401b-b412-662e478de7a2,pilot_7,GGR_VLAT,sona,survey,,,6080,,,survey-multi-select,73,1060358,0.0-73.0,"{""participantEd_math"":["" Algebra""]}",[0]
62806aece90286112039e6a0,6923-8e47710d-9252-40ca-b163-e25da667a709,pilot_7,GGR_VLAT,sona,survey,1280107.699999988,1309911.599999994,29804,"{""TechnicalDifficultiesFreeResp"":""Sometimes the image is kinda blurry "",""participantAge"":""2000"",""participantYears"":""21"",""participantEd_field"":""psychology"",""participantComments"":""NA""}",,survey-text,74,1309218,0.0-74.0,,
62806afbe90286112039e6a1,4443-42492d6d-ba49-401b-b412-662e478de7a2,pilot_7,GGR_VLAT,sona,survey,1060720.0,1079408.0000000002,18688,"{""TechnicalDifficultiesFreeResp"":"""",""participantAge"":""2003"",""participantYears"":""18"",""participantEd_field"":""biology"",""participantComments"":""""}",,survey-text,74,1079054,0.0-74.0,,
6280703be90286112039e6a2,1551-236e5b13-aec0-4e61-83e4-6edab5319554,pilot_7,GGR_VLAT,sona,survey,16077.000000000002,25109.0,9032,"{""Q0"":""V9rodriguez@ucsd.edu""}",V9rodriguez@ucsd.edu,survey-text,1,20287,0.0-1.0,,
6280727ce90286112039e6a3,0077-9c9a694b-f6f0-458e-9de7-457035176642,pilot_7,GGR_VLAT,sona,survey,5995.199999809265,12310.199999809265,6315,"{""Q0"":""k2guerrero@ucsd.edu""}",k2guerrero@ucsd.edu,survey-text,1,11296,0.0-1.0,,
628076d7e90286112039e6e6,0077-9c9a694b-f6f0-458e-9de7-457035176642,pilot_7,GGR_VLAT,sona,survey,,,27902,,,survey-multi-choice,72,1125575,0.0-72.0,"{""participantSex"":""Female"",""participantEd"":""Bachelor's degree"",""judgedDifficulty"":""2"",""participantEffort"":""I tried my best on most questions"",""technicalDifficultiesBinary"":""No""}","[0,1,2,3,4]"
628076dfe90286112039e6e7,0077-9c9a694b-f6f0-458e-9de7-457035176642,pilot_7,GGR_VLAT,sona,survey,,,7957,,,survey-multi-select,73,1133539,0.0-73.0,"{""participantEd_math"":["" Calculus""]}",[0]
628076fae90286112039e6e8,0077-9c9a694b-f6f0-458e-9de7-457035176642,pilot_7,GGR_VLAT,sona,survey,1134543.5,1162276.2999999523,27733,"{""TechnicalDifficultiesFreeResp"":"""",""participantAge"":""2003"",""participantYears"":""18"",""participantEd_field"":""General Biology "",""participantComments"":""""}",,survey-text,74,1161279,0.0-74.0,,
628079eae90286112039e6e9,6162-a47680b0-876d-4351-b74b-55717b79072e,pilot_7,GGR_VLAT,sona,survey,18901.5,24979.700000047684,6078,"{""Q0"":""ssangame@ucsd.edu""}",ssangame@ucsd.edu,survey-text,1,21028,0.0-1.0,,
62807e2ce90286112039e72c,6162-a47680b0-876d-4351-b74b-55717b79072e,pilot_7,GGR_VLAT,sona,survey,,,18052,,,survey-multi-choice,72,1111499,0.0-72.0,"{""participantSex"":""Female"",""participantEd"":""Bachelor's degree"",""judgedDifficulty"":""2"",""participantEffort"":""I tried my best on each question"",""technicalDifficultiesBinary"":""No""}","[0,1,2,3,4]"
62807e34e90286112039e72d,6162-a47680b0-876d-4351-b74b-55717b79072e,pilot_7,GGR_VLAT,sona,survey,,,7829,,,survey-multi-select,73,1119342,0.0-73.0,"{""participantEd_math"":["" Algebra"","" Calculus"","" Statistics""]}",[0]
62807e49e90286112039e72e,6162-a47680b0-876d-4351-b74b-55717b79072e,pilot_7,GGR_VLAT,sona,survey,1123296.399999857,1144906.5,21610,"{""TechnicalDifficultiesFreeResp"":"""",""participantAge"":""1999"",""participantYears"":""22"",""participantEd_field"":""medicine"",""participantComments"":""""}",,survey-text,74,1140965,0.0-74.0,,
62809dc3e90286112039e72f,4566-88906ba4-c909-4a59-9b17-1ab4d045d9a1,pilot_7,GGR_VLAT,sona,survey,6541.0,11280.699999988079,4740,"{""Q0"":""kdn002@ucsd.edu""}",kdn002@ucsd.edu,survey-text,1,8547,0.0-1.0,,
6280a01ee90286112039e772,4566-88906ba4-c909-4a59-9b17-1ab4d045d9a1,pilot_7,GGR_VLAT,sona,survey,,,18240,,,survey-multi-choice,73,611138,0.0-72.0,"{""participantSex"":""Male"",""participantEd"":""Bachelor's degree"",""judgedDifficulty"":""4"",""participantEffort"":""I started out trying hard, but gave up at some point"",""technicalDifficultiesBinary"":""No""}","[0,1,2,3,4]"
6280a022e90286112039e773,4566-88906ba4-c909-4a59-9b17-1ab4d045d9a1,pilot_7,GGR_VLAT,sona,survey,,,4292,,,survey-multi-select,74,615440,0.0-73.0,"{""participantEd_math"":["" Algebra"","" Calculus"","" Statistics"","" None""]}",[0]
6280a03ae90286112039e774,4566-88906ba4-c909-4a59-9b17-1ab4d045d9a1,pilot_7,GGR_VLAT,sona,survey,618166.8000000119,641897.6000000238,23731,"{""TechnicalDifficultiesFreeResp"":""n/a"",""participantAge"":""2000"",""participantYears"":""21"",""participantEd_field"":""cognitive science"",""participantComments"":""no""}",,survey-text,75,639182,0.0-74.0,,
6281295de90286112039e775,3480-5bbd6a97-33f3-4f46-b881-04f862eba1e0,pilot_7,GGR_VLAT,sona,survey,6956.199999999255,13976.400000000373,7020,"{""Q0"":""famo@ucsd.edu""}",famo@ucsd.edu,survey-text,1,13103,0.0-1.0,,
62812a6be90286112039e7b8,3480-5bbd6a97-33f3-4f46-b881-04f862eba1e0,pilot_7,GGR_VLAT,sona,survey,,,10469,,,survey-multi-choice,72,283658,0.0-72.0,"{""participantSex"":""Male"",""participantEd"":""Bachelor's degree"",""judgedDifficulty"":""6"",""participantEffort"":""I tried my best on most questions"",""technicalDifficultiesBinary"":""Yes""}","[0,1,2,3,4]"
62812a75e90286112039e7b9,3480-5bbd6a97-33f3-4f46-b881-04f862eba1e0,pilot_7,GGR_VLAT,sona,survey,,,9733,,,survey-multi-select,73,293397,0.0-73.0,"{""participantEd_math"":["" Algebra"","" None""]}",[0]
62812a83e90286112039e7ba,3480-5bbd6a97-33f3-4f46-b881-04f862eba1e0,pilot_7,GGR_VLAT,sona,survey,294294.0,308731.4000000004,14437,"{""TechnicalDifficultiesFreeResp"":"""",""participantAge"":"""",""participantYears"":"""",""participantEd_field"":"""",""participantComments"":""""}",,survey-text,74,307840,0.0-74.0,,
62812c79e90286112039e7bb,5921-f2aac5fe-2086-490c-9adf-3bb3651d30de,pilot_7,GGR_VLAT,sona,survey,5967.5,12084.100000023842,6117,"{""Q0"":""kzetouna@ucsd.edu""}",kzetouna@ucsd.edu,survey-text,1,11181,0.0-1.0,,
6281367ee90286112039e7c7,2500-ba1db053-0519-4d98-821f-afef342ede01,pilot_7,GGR_VLAT,sona,survey,459797.6999999881,467750.8000000119,7953,"{""Q0"":""kzetouna@ucsd.edu""}",kzetouna@ucsd.edu,survey-text,1,10441,0.0-1.0,,
628137cce90286112039e7d5,9453-fb47bd30-7ec6-486a-86bd-9cce13518317,pilot_7,GGR_VLAT,sona,survey,786790.5,793781.8999999762,6991,"{""Q0"":""kzetouna@ucsd.edu""}",kzetouna@ucsd.edu,survey-text,1,51645,0.0-1.0,,
628139e3e90286112039e818,9453-fb47bd30-7ec6-486a-86bd-9cce13518317,pilot_7,GGR_VLAT,sona,survey,,,23171,,,survey-multi-choice,73,586174,0.0-72.0,"{""participantSex"":""Female"",""participantEd"":""Associate degree"",""judgedDifficulty"":""2"",""participantEffort"":""I tried my best on each question"",""technicalDifficultiesBinary"":""No""}","[0,1,2,3,4]"
628139e3e90286112039e819,3093-ecb8d27d-f570-4bbf-9b3a-d4c91bb33c05,pilot_7,GGR_VLAT,sona,survey,273244.59999999404,279035.69999999553,5791,"{""Q0"":""aslee@ucsd.edu""}",aslee@ucsd.edu,survey-text,1,16481,0.0-1.0,,
628139eae90286112039e81a,9453-fb47bd30-7ec6-486a-86bd-9cce13518317,pilot_7,GGR_VLAT,sona,survey,,,7071,,,survey-multi-select,74,593256,0.0-73.0,"{""participantEd_math"":["" Algebra"","" Statistics""]}",[0]
62813a03e90286112039e81b,9453-fb47bd30-7ec6-486a-86bd-9cce13518317,pilot_7,GGR_VLAT,sona,survey,1335389.8999999762,1360803.800000012,25414,"{""TechnicalDifficultiesFreeResp"":""did not have difficulties"",""participantAge"":""2001"",""participantYears"":""20"",""participantEd_field"":""psychology "",""participantComments"":""fun!""}",,survey-text,75,618685,0.0-74.0,,
62813d65e90286112039e85e,3093-ecb8d27d-f570-4bbf-9b3a-d4c91bb33c05,pilot_7,GGR_VLAT,sona,survey,,,14201,,,survey-multi-choice,73,913954,0.0-72.0,"{""participantSex"":""Female"",""participantEd"":""Bachelor's degree"",""judgedDifficulty"":""4"",""participantEffort"":""I tried my best on most questions"",""technicalDifficultiesBinary"":""No""}","[0,1,2,3,4]"
62813d6ae90286112039e85f,3093-ecb8d27d-f570-4bbf-9b3a-d4c91bb33c05,pilot_7,GGR_VLAT,sona,survey,,,5827,,,survey-multi-select,74,919792,0.0-73.0,"{""participantEd_math"":["" Algebra"","" Calculus"","" Statistics""]}",[0]
62813d84e90286112039e860,3093-ecb8d27d-f570-4bbf-9b3a-d4c91bb33c05,pilot_7,GGR_VLAT,sona,survey,1182357.599999994,1207840.599999994,25483,"{""TechnicalDifficultiesFreeResp"":""I did  not encounter any, "",""participantAge"":""2000"",""participantYears"":""21"",""participantEd_field"":""Biology"",""participantComments"":""""}",,survey-text,75,945287,0.0-74.0,,
62815d8be90286112039e861,3939-3db2aae1-6eaa-4e52-b6ef-af98fd6a0e12,pilot_7,GGR_VLAT,sona,survey,30086.199999928474,39524.799999952316,9439,"{""Q0"":""mbsharma@ucsd.edu""}",mbsharma@ucsd.edu,survey-text,1,37679,0.0-1.0,,
62815fa2e90286112039e8a4,3939-3db2aae1-6eaa-4e52-b6ef-af98fd6a0e12,pilot_7,GGR_VLAT,sona,survey,,,17829,,,survey-multi-choice,72,572518,0.0-72.0,"{""participantSex"":""Other"",""participantEd"":""Bachelor's degree"",""judgedDifficulty"":""3"",""participantEffort"":""I tried my best on each question"",""technicalDifficultiesBinary"":""No""}","[0,1,2,3,4]"
62815fa8e90286112039e8a5,3939-3db2aae1-6eaa-4e52-b6ef-af98fd6a0e12,pilot_7,GGR_VLAT,sona,survey,,,6309,,,survey-multi-select,73,578834,0.0-73.0,"{""participantEd_math"":["" Algebra"","" Statistics""]}",[0]
62815fb7e90286112039e8a6,3939-3db2aae1-6eaa-4e52-b6ef-af98fd6a0e12,pilot_7,GGR_VLAT,sona,survey,580697.1000000238,595626.3999999762,14929,"{""TechnicalDifficultiesFreeResp"":""none"",""participantAge"":""2001"",""participantYears"":""21"",""participantEd_field"":""Cognitive Science"",""participantComments"":""fun!""}",,survey-text,74,593773,0.0-74.0,,
62816bb3e90286112039e8a7,6675-229bbf9d-32ea-4491-9930-9ac27ec29042,pilot_7,GGR_VLAT,sona,survey,11557.199999928474,20158.799999952316,8602,"{""Q0"":""lflieder@ucsd.edu""}",lflieder@ucsd.edu,survey-text,1,18836,0.0-1.0,,
6281703be90286112039e8dd,4043-f80c41c3-563a-47d3-82b4-63c3bde3d1cb,pilot_7,GGR_VLAT,sona,survey,14885.0,26769.000000000004,11884,"{""Q0"":""jiy051@ucsd.edu""}",jiy051@ucsd.edu,survey-text,1,24643,0.0-1.0,,
628170eee90286112039e8eb,6675-229bbf9d-32ea-4491-9930-9ac27ec29042,pilot_7,GGR_VLAT,sona,survey,,,17945,,,survey-multi-choice,72,1358104,0.0-72.0,"{""participantSex"":""Female"",""participantEd"":""High school graduate, diploma or equivalent"",""judgedDifficulty"":""4"",""participantEffort"":""I tried my best on most questions"",""technicalDifficultiesBinary"":""No""}","[0,1,2,3,4]"
628170f2e90286112039e8ec,6675-229bbf9d-32ea-4491-9930-9ac27ec29042,pilot_7,GGR_VLAT,sona,survey,,,4139,,,survey-multi-select,73,1362252,0.0-73.0,"{""participantEd_math"":["" Algebra"","" Calculus"","" Statistics""]}",[0]
628170fde90286112039e8ed,6675-229bbf9d-32ea-4491-9930-9ac27ec29042,pilot_7,GGR_VLAT,sona,survey,1363522.1000000238,1374699.8999999762,11178,"{""TechnicalDifficultiesFreeResp"":"""",""participantAge"":""2002"",""participantYears"":""20"",""participantEd_field"":""Psychology"",""participantComments"":""""}",,survey-text,74,1373439,0.0-74.0,,
628192afe90286112039e8ee,3094-6e0cae39-5774-4e0d-8ffd-8c44b122a3af,pilot_7,GGR_VLAT,sona,survey,6325.5,13209.90000000596,6884,"{""Q0"":""adauz@ucsd.edu""}",adauz@ucsd.edu,survey-text,1,12118,0.0-1.0,,
628195a3e90286112039e931,3094-6e0cae39-5774-4e0d-8ffd-8c44b122a3af,pilot_7,GGR_VLAT,sona,survey,,,33179,,,survey-multi-choice,72,768137,0.0-72.0,"{""participantSex"":""Female"",""participantEd"":""Bachelor's degree"",""judgedDifficulty"":""3"",""participantEffort"":""I tried my best on each question"",""technicalDifficultiesBinary"":""No""}","[0,1,2,3,4]"
628195aae90286112039e932,3094-6e0cae39-5774-4e0d-8ffd-8c44b122a3af,pilot_7,GGR_VLAT,sona,survey,,,7460,,,survey-multi-select,73,775608,0.0-73.0,"{""participantEd_math"":["" Algebra"","" Calculus""]}",[0]
628195c0e90286112039e933,3094-6e0cae39-5774-4e0d-8ffd-8c44b122a3af,pilot_7,GGR_VLAT,sona,survey,776707.200000003,798543.0,21836,"{""TechnicalDifficultiesFreeResp"":""I did not encounter any "",""participantAge"":""2001"",""participantYears"":""21"",""participantEd_field"":""pharmacological chemistry"",""participantComments"":""""}",,survey-text,74,797454,0.0-74.0,,
6281a109e90286112039e934,3820-1686f6e2-61b0-4261-897b-2fdaf66eaa1b,pilot_7,GGR_VLAT,sona,survey,16848.0,31520.0,14672,"{""Q0"":""jgolichn@ucsd.edu""}",jgolichn@ucsd.edu,survey-text,1,28792,0.0-1.0,,
6281a4c0e90286112039e977,3820-1686f6e2-61b0-4261-897b-2fdaf66eaa1b,pilot_7,GGR_VLAT,sona,survey,,,23732,,,survey-multi-choice,73,979635,0.0-72.0,"{""participantSex"":""Male"",""participantEd"":""Bachelor's degree"",""judgedDifficulty"":""3"",""participantEffort"":""I tried my best on each question"",""technicalDifficultiesBinary"":""No""}","[0,1,2,3,4]"
6281a4c5e90286112039e978,3820-1686f6e2-61b0-4261-897b-2fdaf66eaa1b,pilot_7,GGR_VLAT,sona,survey,,,4925,,,survey-multi-select,74,984568,0.0-73.0,"{""participantEd_math"":["" Algebra"","" Calculus"","" Statistics""]}",[0]
6281a4dde90286112039e979,3820-1686f6e2-61b0-4261-897b-2fdaf66eaa1b,pilot_7,GGR_VLAT,sona,survey,987311.0,1011635.0,24324,"{""TechnicalDifficultiesFreeResp"":""n/a"",""participantAge"":""2002"",""participantYears"":""19"",""participantEd_field"":""Cog Sci w/ Design"",""participantComments"":""Thank you!""}",,survey-text,75,1008897,0.0-74.0,,
6281be15e90286112039e97a,8418-8203288a-2812-42a2-a5ab-ff30a69d2145,pilot_7,GGR_VLAT,sona,survey,4246.0,11094.0,6848,"{""Q0"":""abynum@ucsd.edu""}",abynum@ucsd.edu,survey-text,1,9882,0.0-1.0,,
6281c950e90286112039e97b,1898-10c24c63-25fe-4033-97c5-ad25c9fe5207,pilot_7,GGR_VLAT,sona,survey,157721.69999998808,181295.0,23573,"{""Q0"":""mabdolah@ucsd.edu""}",mabdolah@ucsd.edu,survey-text,1,171753,0.0-1.0,,
6281d0a5e90286112039e9a3,2615-2c7b4596-f967-4c4b-a9e9-e18460ac9af0,pilot_7,GGR_VLAT,sona,survey,1680837.0,1690263.0000000002,9426,"{""Q0"":""abynum@ucsd.edu""}",abynum@ucsd.edu,survey-text,1,260306,0.0-1.0,,
6281d47de90286112039e9f9,2615-2c7b4596-f967-4c4b-a9e9-e18460ac9af0,pilot_7,GGR_VLAT,sona,survey,,,21693,,,survey-multi-choice,73,1243924,0.0-72.0,"{""participantSex"":""Male"",""participantEd"":""Associate degree"",""judgedDifficulty"":""1"",""participantEffort"":""I tried my best on most questions"",""technicalDifficultiesBinary"":""No""}","[0,1,2,3,4]"
6281d485e90286112039e9fa,2615-2c7b4596-f967-4c4b-a9e9-e18460ac9af0,pilot_7,GGR_VLAT,sona,survey,,,8500,,,survey-multi-select,74,1252435,0.0-73.0,"{""participantEd_math"":["" Algebra"","" Statistics""]}",[0]
6281d4a5e90286112039e9fc,2615-2c7b4596-f967-4c4b-a9e9-e18460ac9af0,pilot_7,GGR_VLAT,sona,survey,2682385.0,2714171.0000000005,31786,"{""TechnicalDifficultiesFreeResp"":""none."",""participantAge"":""2000"",""participantYears"":""21"",""participantEd_field"":""Business Psychology"",""participantComments"":""Very well done.""}",,survey-text,75,1284229,0.0-74.0,,
6281d5e5e90286112039ea04,1898-10c24c63-25fe-4033-97c5-ad25c9fe5207,pilot_7,GGR_VLAT,sona,survey,,,48807,,,survey-multi-choice,72,3393430,0.0-72.0,"{""participantSex"":""Female"",""participantEd"":""Bachelor's degree"",""judgedDifficulty"":""1"",""participantEffort"":""I tried my best on each question"",""technicalDifficultiesBinary"":""No""}","[0,1,2,3,4]"
6281d5fae90286112039ea05,1898-10c24c63-25fe-4033-97c5-ad25c9fe5207,pilot_7,GGR_VLAT,sona,survey,,,20822,,,survey-multi-select,73,3414267,0.0-73.0,"{""participantEd_math"":["" Calculus""]}",[0]
6281d625e90286112039ea06,1898-10c24c63-25fe-4033-97c5-ad25c9fe5207,pilot_7,GGR_VLAT,sona,survey,3423829.599999994,3466600.5,42771,"{""TechnicalDifficultiesFreeResp"":"""",""participantAge"":""1991"",""participantYears"":""31"",""participantEd_field"":""pharmD"",""participantComments"":""""}",,survey-text,74,3457061,0.0-74.0,,
6282013ee90286112039ea07,3335-5a3b0b0c-12fd-4c5a-a386-299f016c7cdb,pilot_7,GGR_VLAT,sona,survey,17921.10000000056,28631.900000000373,10711,"{""Q0"":""sdzheng@ucsd.edu""}",sdzheng@ucsd.edu,survey-text,1,28257,0.0-1.0,,
62820760e90286112039ea4a,3335-5a3b0b0c-12fd-4c5a-a386-299f016c7cdb,pilot_7,GGR_VLAT,sona,survey,,,30679,,,survey-multi-choice,72,1598481,0.0-72.0,"{""participantSex"":""Male"",""participantEd"":""Bachelor's degree"",""judgedDifficulty"":""4"",""participantEffort"":""I tried my best on each question"",""technicalDifficultiesBinary"":""No""}","[0,1,2,3,4]"
62820766e90286112039ea4b,3335-5a3b0b0c-12fd-4c5a-a386-299f016c7cdb,pilot_7,GGR_VLAT,sona,survey,,,6251,,,survey-multi-select,73,1604737,0.0-73.0,"{""participantEd_math"":["" Algebra"","" Calculus"","" Statistics""]}",[0]
62820781e90286112039ea4c,3335-5a3b0b0c-12fd-4c5a-a386-299f016c7cdb,pilot_7,GGR_VLAT,sona,survey,1605119.5,1631784.7000000002,26665,"{""TechnicalDifficultiesFreeResp"":"""",""participantAge"":""1999"",""participantYears"":""21"",""participantEd_field"":""Cognitive Science"",""participantComments"":""""}",,survey-text,74,1631410,0.0-74.0,,
62826cb3e90286112039ea4d,8871-8084e64c-4256-4641-9760-40b6726037d0,pilot_7,GGR_VLAT,sona,survey,5406.0999999940395,12748.199999988079,7342,"{""Q0"":""b1gao@ucsd.edu""}",b1gao@ucsd.edu,survey-text,1,11352,0.0-1.0,,
62826ce4e90286112039ea4e,7825-774de381-ff2e-4751-a807-ef97d432f1e4,pilot_7,GGR_VLAT,sona,survey,2875.5999999940395,6753.199999988079,3878,"{""Q0"":""b1gao@ucsd.edu""}",b1gao@ucsd.edu,survey-text,1,6133,0.0-1.0,,
62826d02e90286112039ea4f,2099-70612ceb-c67f-4035-b2f9-b8f4d9d3db17,pilot_7,GGR_VLAT,sona,survey,11241.0,15570.5,4330,"{""Q0"":""b1gao@ucsd.edu""}",b1gao@ucsd.edu,survey-text,1,14915,0.0-1.0,,
62826d0fe90286112039ea50,4432-9ff709c8-3c8a-4b4a-a559-1472e59758da,pilot_7,GGR_VLAT,sona,survey,6995.199999988079,14271.0,7276,"{""Q0"":""smwillia@ucsd.edu""}",smwillia@ucsd.edu,survey-text,1,13200,0.0-1.0,,
6282703ee90286112039eacc,4432-9ff709c8-3c8a-4b4a-a559-1472e59758da,pilot_7,GGR_VLAT,sona,survey,,,22127,,,survey-multi-choice,72,828349,0.0-72.0,"{""participantSex"":""Female"",""participantEd"":""High school graduate, diploma or equivalent"",""judgedDifficulty"":""3"",""participantEffort"":""I started out trying hard, but gave up at some point"",""technicalDifficultiesBinary"":""No""}","[0,1,2,3,4]"
62827047e90286112039eace,4432-9ff709c8-3c8a-4b4a-a559-1472e59758da,pilot_7,GGR_VLAT,sona,survey,,,8551,,,survey-multi-select,73,836914,0.0-73.0,"{""participantEd_math"":["" Algebra"","" Statistics""]}",[0]
6282705ae90286112039ead1,4432-9ff709c8-3c8a-4b4a-a559-1472e59758da,pilot_7,GGR_VLAT,sona,survey,838014.5,857452.8000000119,19438,"{""TechnicalDifficultiesFreeResp"":"""",""participantAge"":""2002"",""participantYears"":""20 "",""participantEd_field"":""education studies "",""participantComments"":""fun""}",,survey-text,74,856364,0.0-74.0,,
628270bbe90286112039ead8,2099-70612ceb-c67f-4035-b2f9-b8f4d9d3db17,pilot_7,GGR_VLAT,sona,survey,,,18578,,,survey-multi-choice,72,967227,0.0-72.0,"{""participantSex"":""Male"",""participantEd"":""High school graduate, diploma or equivalent"",""judgedDifficulty"":""4"",""participantEffort"":""I tried my best on each question"",""technicalDifficultiesBinary"":""No""}","[0,1,2,3,4]"
628270bfe90286112039ead9,2099-70612ceb-c67f-4035-b2f9-b8f4d9d3db17,pilot_7,GGR_VLAT,sona,survey,,,4087,,,survey-multi-select,73,971318,0.0-73.0,"{""participantEd_math"":["" Algebra"","" Calculus"","" Statistics""]}",[0]
628270e4e90286112039eada,2099-70612ceb-c67f-4035-b2f9-b8f4d9d3db17,pilot_7,GGR_VLAT,sona,survey,971979.3000000119,1009235.8000000119,37257,"{""TechnicalDifficultiesFreeResp"":"""",""participantAge"":""2002"",""participantYears"":""20"",""participantEd_field"":""Psychology"",""participantComments"":""It was a slog personally but also not super boring, thanks!""}",,survey-text,74,1008579,0.0-74.0,,
6282a90ee90286112039eadb,8432-f2f98f9e-daad-4540-bdb4-0050bde2d5b0,pilot_7,GGR_VLAT,sona,survey,38595.09999999963,48889.89999999944,10295,"{""Q0"":""c7lee@ucsd.edu""}",c7lee@ucsd.edu,survey-text,1,48001,0.0-1.0,,
6282b406e90286112039eaf9,8389-30f57c17-9fa3-4111-bb4a-1fe0f19e1aab,pilot_7,GGR_VLAT,sona,survey,2767608.1000000006,2772860.499999999,5252,"{""Q0"":""c7lee@ucsd.edu""}",c7lee@ucsd.edu,survey-text,1,16393,0.0-1.0,,
6282b9b8e90286112039eb3c,8389-30f57c17-9fa3-4111-bb4a-1fe0f19e1aab,pilot_7,GGR_VLAT,sona,survey,,,17020,,,survey-multi-choice,72,1474098,0.0-72.0,"{""participantSex"":""Female"",""participantEd"":""Bachelor's degree"",""judgedDifficulty"":""2"",""participantEffort"":""I tried my best on most questions"",""technicalDifficultiesBinary"":""No""}","[0,1,2,3,4]"
6282b9bde90286112039eb3d,8389-30f57c17-9fa3-4111-bb4a-1fe0f19e1aab,pilot_7,GGR_VLAT,sona,survey,,,5262,,,survey-multi-select,73,1479371,0.0-73.0,"{""participantEd_math"":["" Algebra"","" Calculus"","" Statistics""]}",[0]
6282b9cfe90286112039eb3e,8389-30f57c17-9fa3-4111-bb4a-1fe0f19e1aab,pilot_7,GGR_VLAT,sona,survey,4235825.2,4253729.899999999,17905,"{""TechnicalDifficultiesFreeResp"":"""",""participantAge"":""2000"",""participantYears"":""21"",""participantEd_field"":""Human Biology"",""participantComments"":""""}",,survey-text,74,1497289,0.0-74.0,,
6282e284e90286112039eb3f,0099-d4b1c3e1-d56c-4a58-994e-7de3b34213b5,pilot_7,GGR_VLAT,sona,survey,7465.0,15684.000000000002,8219,"{""Q0"":""mil243@ucsd.edu""}",mil243@ucsd.edu,survey-text,1,14000,0.0-1.0,,
6282e2e0e90286112039eb40,0166-5d880d2f-6725-4998-aa84-8f8116d2faac,pilot_7,GGR_VLAT,sona,survey,19596.0,28909.0,9313,"{""Q0"":""mil243@ucsd.edu""}",mil243@ucsd.edu,survey-text,1,28683,0.0-1.0,,
6282e329e90286112039eb41,4598-02feb383-e585-4087-a19c-d1f7eb25d34b,pilot_7,GGR_VLAT,sona,survey,3805.0,7108.000000000001,3303,"{""Q0"":""mil243@ucsd.edu""}",mil243@ucsd.edu,survey-text,1,6657,0.0-1.0,,
6282e35ee90286112039eb42,0804-84e11754-fa17-467b-abac-ae0345ae889d,pilot_7,GGR_VLAT,sona,survey,11459.0,16013.000000000002,4554,"{""Q0"":""mil243@ucsd.edu""}",mil243@ucsd.edu,survey-text,1,15057,0.0-1.0,,
6282e687e90286112039eb85,0804-84e11754-fa17-467b-abac-ae0345ae889d,pilot_7,GGR_VLAT,sona,survey,,,18381,,,survey-multi-choice,72,824390,0.0-72.0,"{""participantSex"":""Male"",""participantEd"":""Bachelor's degree"",""judgedDifficulty"":""4"",""participantEffort"":""I tried my best on most questions"",""technicalDifficultiesBinary"":""No""}","[0,1,2,3,4]"
6282e68ee90286112039eb86,0804-84e11754-fa17-467b-abac-ae0345ae889d,pilot_7,GGR_VLAT,sona,survey,,,6765,,,survey-multi-select,73,831163,0.0-73.0,"{""participantEd_math"":["" Algebra"","" Calculus"","" Statistics""]}",[0]
6282e69ee90286112039eb87,0804-84e11754-fa17-467b-abac-ae0345ae889d,pilot_7,GGR_VLAT,sona,survey,832131.0,848078.0,15947,"{""TechnicalDifficultiesFreeResp"":"""",""participantAge"":""1997"",""participantYears"":""24"",""participantEd_field"":""cogsci neuro"",""participantComments"":""""}",,survey-text,74,847116,0.0-74.0,,
6282ef2ae90286112039eb88,5976-2476139b-7919-46fb-ba57-8a3882a797b8,pilot_7,GGR_VLAT,sona,survey,210809.30000001192,221458.10000002384,10649,"{""Q0"":""bdickens@ucsd.edu""}",bdickens@ucsd.edu,survey-text,1,219834,0.0-1.0,,
6282f580e90286112039ebcb,5976-2476139b-7919-46fb-ba57-8a3882a797b8,pilot_7,GGR_VLAT,sona,survey,,,55311,,,survey-multi-choice,72,1841879,0.0-72.0,"{""participantSex"":""Female"",""participantEd"":""Bachelor's degree"",""judgedDifficulty"":""2"",""participantEffort"":""I tried my best on each question"",""technicalDifficultiesBinary"":""No""}","[0,1,2,3,4]"
6282f588e90286112039ebcc,5976-2476139b-7919-46fb-ba57-8a3882a797b8,pilot_7,GGR_VLAT,sona,survey,,,8707,,,survey-multi-select,73,1850593,0.0-73.0,"{""participantEd_math"":["" Algebra"","" Calculus"","" Statistics""]}",[0]
6282f5ade90286112039ebcd,5976-2476139b-7919-46fb-ba57-8a3882a797b8,pilot_7,GGR_VLAT,sona,survey,1852230.699999988,1888817.0,36586,"{""TechnicalDifficultiesFreeResp"":"""",""participantAge"":""2001"",""participantYears"":""20"",""participantEd_field"":""developmental psychology"",""participantComments"":""""}",,survey-text,74,1887193,0.0-74.0,,
62830394e90286112039ebce,6839-76586859-4b6a-4025-a1dc-62dde508f992,pilot_7,GGR_VLAT,sona,survey,26451.899999976158,34549.39999997616,8098,"{""Q0"":""ldauphinee@ucsd.edu""}",ldauphinee@ucsd.edu,survey-text,1,32858,0.0-1.0,,
628304dee90286112039ebdd,0170-94d995c1-e447-4873-abc3-82862e25ede4,pilot_7,GGR_VLAT,sona,survey,10660.0,17545.0,6885,"{""Q0"":""igamez@ucsd.edu""}",igamez@ucsd.edu,survey-text,1,15682,0.0-1.0,,
62830894e90286112039ec21,6839-76586859-4b6a-4025-a1dc-62dde508f992,pilot_7,GGR_VLAT,sona,survey,,,17116,,,survey-multi-choice,72,1312469,0.0-72.0,"{""participantSex"":""Do Not Wish To Say"",""participantEd"":""Associate degree"",""judgedDifficulty"":""3"",""participantEffort"":""I tried my best on each question"",""technicalDifficultiesBinary"":""No""}","[0,1,2,3,4]"
6283089be90286112039ec22,6839-76586859-4b6a-4025-a1dc-62dde508f992,pilot_7,GGR_VLAT,sona,survey,,,7350,,,survey-multi-select,73,1319831,0.0-73.0,"{""participantEd_math"":["" Algebra""]}",[0]
628308aee90286112039ec23,6839-76586859-4b6a-4025-a1dc-62dde508f992,pilot_7,GGR_VLAT,sona,survey,1321534.5,1340323.199999988,18789,"{""TechnicalDifficultiesFreeResp"":"""",""participantAge"":""2003"",""participantYears"":"""",""participantEd_field"":""sociology"",""participantComments"":""""}",,survey-text,74,1338630,0.0-74.0,,
62830c38e90286112039ec2d,7273-b8108374-b6ed-42ee-bc2a-bc56c0dcfdd3,pilot_7,GGR_VLAT,sona,survey,6668.299999952316,14782.0,8114,"{""Q0"":""gbartell@ucsd.edu""}",gbartell@ucsd.edu,survey-text,1,12885,0.0-1.0,,
62831310e90286112039ec81,5518-8a41ffe9-454f-4552-91d0-bd2514e724b1,pilot_7,GGR_VLAT,sona,survey,9631.0,27173.0,17542,"{""Q0"":""igamez@ucsd.edu""}",igamez@ucsd.edu,survey-text,1,24142,0.0-1.0,,
62831816e90286112039ecb3,6196-d39bf0d0-722f-490a-a113-b8292cb85409,pilot_7,GGR_VLAT,sona,survey,4930.299999952316,12038.700000047684,7108,"{""Q0"":""yiyun@ucsd.edu""}",yiyun@ucsd.edu,survey-text,1,11061,0.0-1.0,,
62831868e90286112039ecb5,3897-6b278bad-caf0-4479-9591-09c51f29c105,pilot_7,GGR_VLAT,sona,survey,3806.9000000953674,16334.200000047684,12527,"{""Q0"":""yiyun@ucsd.edu""}",yiyun@ucsd.edu,survey-text,1,15145,0.0-1.0,,
62831b8ae90286112039ece3,5518-8a41ffe9-454f-4552-91d0-bd2514e724b1,pilot_7,GGR_VLAT,sona,survey,,,66344,,,survey-multi-choice,73,2194046,0.0-72.0,"{""participantSex"":""Female"",""participantEd"":""High school graduate, diploma or equivalent"",""judgedDifficulty"":""4"",""participantEffort"":""I tried my best on each question"",""technicalDifficultiesBinary"":""Yes""}","[0,1,2,3,4]"
62831b92e90286112039ece4,5518-8a41ffe9-454f-4552-91d0-bd2514e724b1,pilot_7,GGR_VLAT,sona,survey,,,8492,,,survey-multi-select,74,2202548,0.0-73.0,"{""participantEd_math"":["" Algebra"","" Calculus"","" Statistics""]}",[0]
62831bcae90286112039ece7,5518-8a41ffe9-454f-4552-91d0-bd2514e724b1,pilot_7,GGR_VLAT,sona,survey,2205593.0,2260954.0,55361,"{""TechnicalDifficultiesFreeResp"":""Screen froze and I had to restart "",""participantAge"":""2001"",""participantYears"":""21"",""participantEd_field"":""Human Developmental Studies"",""participantComments"":""This was fun!""}",,survey-text,75,2257919,0.0-74.0,,
62831f09e90286112039ed0b,3897-6b278bad-caf0-4479-9591-09c51f29c105,pilot_7,GGR_VLAT,sona,survey,,,28101,,,survey-multi-choice,73,1712198,0.0-72.0,"{""participantSex"":""Female"",""participantEd"":""Bachelor's degree"",""judgedDifficulty"":""5"",""participantEffort"":""I tried my best on most questions"",""technicalDifficultiesBinary"":""No""}","[0,1,2,3,4]"
62831f17e90286112039ed0c,3897-6b278bad-caf0-4479-9591-09c51f29c105,pilot_7,GGR_VLAT,sona,survey,,,14217,,,survey-multi-select,74,1726420,0.0-73.0,"{""participantEd_math"":["" Algebra"","" Calculus"","" Statistics""]}",[0]
62831f53e90286112039ed0d,3897-6b278bad-caf0-4479-9591-09c51f29c105,pilot_7,GGR_VLAT,sona,survey,1727615.3000000715,1787425.4000000954,59810,"{""TechnicalDifficultiesFreeResp"":"""",""participantAge"":""2002"",""participantYears"":""9"",""participantEd_field"":""statistics"",""participantComments"":""""}",,survey-text,75,1786237,0.0-74.0,,
62831fd5e90286112039ed0e,7273-b8108374-b6ed-42ee-bc2a-bc56c0dcfdd3,pilot_7,GGR_VLAT,sona,survey,,,4048104,,,survey-multi-choice,72,5033246,0.0-72.0,"{""participantSex"":""Female"",""participantEd"":""Bachelor's degree"",""judgedDifficulty"":""3"",""participantEffort"":""I tried my best on most questions"",""technicalDifficultiesBinary"":""No""}","[0,1,2,3,4]"
62831fdbe90286112039ed0f,7273-b8108374-b6ed-42ee-bc2a-bc56c0dcfdd3,pilot_7,GGR_VLAT,sona,survey,,,5977,,,survey-multi-select,73,5039232,0.0-73.0,"{""participantEd_math"":["" Algebra"","" Calculus"","" Statistics""]}",[0]
62831fe9e90286112039ed10,7273-b8108374-b6ed-42ee-bc2a-bc56c0dcfdd3,pilot_7,GGR_VLAT,sona,survey,5041252.6999999285,5055872.599999905,14620,"{""TechnicalDifficultiesFreeResp"":"""",""participantAge"":""2002"",""participantYears"":""19"",""participantEd_field"":""psychology"",""participantComments"":""""}",,survey-text,74,5053862,0.0-74.0,,
62834159e90286112039ed11,4714-030cfa51-566e-493b-8845-13d44f14076f,pilot_7,GGR_VLAT,sona,survey,7496.0,16257.000000000002,8761,"{""Q0"":""z3qi@ucsd.edu""}",z3qi@ucsd.edu,survey-text,1,13861,0.0-1.0,,
62834c39e90286112039ed18,0494-364ba456-c026-45e3-b6ae-0b6955f9213a,pilot_7,GGR_VLAT,sona,survey,279404.0,290371.0,10967,"{""Q0"":""z3qi@ucsd.edu""}",z3qi@ucsd.edu,survey-text,1,15675,0.0-1.0,,
628352b8e90286112039ed5b,0494-364ba456-c026-45e3-b6ae-0b6955f9213a,pilot_7,GGR_VLAT,sona,survey,,,45897,,,survey-multi-choice,72,1678447,0.0-72.0,"{""participantSex"":""Female"",""participantEd"":""Bachelor's degree"",""judgedDifficulty"":""2"",""participantEffort"":""I tried my best on each question"",""technicalDifficultiesBinary"":""No""}","[0,1,2,3,4]"
628352cce90286112039ed5c,0494-364ba456-c026-45e3-b6ae-0b6955f9213a,pilot_7,GGR_VLAT,sona,survey,,,19497,,,survey-multi-select,73,1697951,0.0-73.0,"{""participantEd_math"":["" Algebra"","" Calculus"","" Statistics""]}",[0]
628352d2e90286112039ed5d,7262-7a8ddf13-4468-4c14-9351-52f4c842a16a,pilot_7,GGR_VLAT,sona,survey,129444.0,141192.0,11748,"{""Q0"":""jtc001@ucsd.edu""}",jtc001@ucsd.edu,survey-text,1,140592,0.0-1.0,,
628352ede90286112039ed5e,0494-364ba456-c026-45e3-b6ae-0b6955f9213a,pilot_7,GGR_VLAT,sona,survey,1972727.0,2005792.0000000002,33065,"{""TechnicalDifficultiesFreeResp"":"""",""participantAge"":""2003"",""participantYears"":""18"",""participantEd_field"":""Cognitive science"",""participantComments"":""""}",,survey-text,74,1731024,0.0-74.0,,
62835910e90286112039eda1,7262-7a8ddf13-4468-4c14-9351-52f4c842a16a,pilot_7,GGR_VLAT,sona,survey,,,25753,,,survey-multi-choice,75,1737783,0.0-72.0,"{""participantSex"":""Male"",""participantEd"":""High school graduate, diploma or equivalent"",""judgedDifficulty"":""5"",""participantEffort"":""I tried my best on each question"",""technicalDifficultiesBinary"":""No""}","[0,1,2,3,4]"
62835917e90286112039eda2,7262-7a8ddf13-4468-4c14-9351-52f4c842a16a,pilot_7,GGR_VLAT,sona,survey,,,7370,,,survey-multi-select,76,1745162,0.0-73.0,"{""participantEd_math"":["" Algebra"","" Calculus"","" Statistics""]}",[0]
62835931e90286112039eda3,7262-7a8ddf13-4468-4c14-9351-52f4c842a16a,pilot_7,GGR_VLAT,sona,survey,1745791.200000003,1771646.700000003,25856,"{""TechnicalDifficultiesFreeResp"":"""",""participantAge"":""2001"",""participantYears"":""20"",""participantEd_field"":""Psychology"",""participantComments"":""""}",,survey-text,77,1771029,0.0-74.0,,
6283e803e90286112039eda4,8930-25568901-5e40-4777-8bc9-d2162b717293,pilot_7,GGR_VLAT,sona,survey,7656.0,14862.0,7206,"{""Q0"":""zhmai@ucsd.edu""}",zhmai@ucsd.edu,survey-text,1,13148,0.0-1.0,,
6283ec58e90286112039ede7,8930-25568901-5e40-4777-8bc9-d2162b717293,pilot_7,GGR_VLAT,sona,survey,,,20573,,,survey-multi-choice,75,1122473,0.0-72.0,"{""participantSex"":""Female"",""participantEd"":""High school graduate, diploma or equivalent"",""judgedDifficulty"":""5"",""participantEffort"":""I tried my best on most questions"",""technicalDifficultiesBinary"":""No""}","[0,1,2,3,4]"
6283ec61e90286112039ede8,8930-25568901-5e40-4777-8bc9-d2162b717293,pilot_7,GGR_VLAT,sona,survey,,,9337,,,survey-multi-select,76,1131821,0.0-73.0,"{""participantEd_math"":["" Algebra"","" Calculus"","" Statistics""]}",[0]
6283ec74e90286112039ede9,8930-25568901-5e40-4777-8bc9-d2162b717293,pilot_7,GGR_VLAT,sona,survey,1133549.2000000477,1152461.4000000954,18912,"{""TechnicalDifficultiesFreeResp"":"""",""participantAge"":""2001"",""participantYears"":""20"",""participantEd_field"":""biology"",""participantComments"":""""}",,survey-text,77,1150745,0.0-74.0,,
6283fc4de90286112039edea,5129-e9abdc59-ef53-4f44-8ec1-654632aff345,pilot_7,GGR_VLAT,sona,survey,5258.70000000298,14196.59999999404,8938,"{""Q0"":""jeqiu@ucsd.edu""}",jeqiu@ucsd.edu,survey-text,1,13146,0.0-1.0,,
62840f7ce90286112039edeb,9948-dcf341ba-30b7-4df5-a329-f9e870408742,pilot_7,GGR_VLAT,sona,survey,55300.69999998808,61555.299999952316,6255,"{""Q0"":""kpadgett@ucsd.edu""}",kpadgett@ucsd.edu,survey-text,1,59583,0.0-1.0,,
628414b1e90286112039ee2e,9948-dcf341ba-30b7-4df5-a329-f9e870408742,pilot_7,GGR_VLAT,sona,survey,,,22679,,,survey-multi-choice,72,1392206,0.0-72.0,"{""participantSex"":""Female"",""participantEd"":""High school graduate, diploma or equivalent"",""judgedDifficulty"":""2"",""participantEffort"":""I tried my best on each question"",""technicalDifficultiesBinary"":""No""}","[0,1,2,3,4]"
628414bfe90286112039ee2f,9948-dcf341ba-30b7-4df5-a329-f9e870408742,pilot_7,GGR_VLAT,sona,survey,,,13886,,,survey-multi-select,73,1406103,0.0-73.0,"{""participantEd_math"":["" Algebra"","" Calculus"","" Statistics""]}",[0]
628414eae90286112039ee30,9948-dcf341ba-30b7-4df5-a329-f9e870408742,pilot_7,GGR_VLAT,sona,survey,1408177.0999999642,1451379.0999999642,43202,"{""TechnicalDifficultiesFreeResp"":"""",""participantAge"":""2003"",""participantYears"":""18"",""participantEd_field"":""Behavioral Neuroscience "",""participantComments"":""""}",,survey-text,74,1449315,0.0-74.0,,
6284170ae90286112039ee31,0087-6b2075b3-32f1-41f4-a81d-a237e3f67466,pilot_7,GGR_VLAT,sona,survey,3871552.200000003,3902728.0,31176,"{""Q0"":""jeqiu@ucsd.edu""}",jeqiu@ucsd.edu,survey-text,1,92299,0.0-1.0,,
62841734e90286112039ee32,0353-404403c6-02b5-42c0-9052-105d07ba651f,pilot_7,GGR_VLAT,sona,survey,4809.29999999702,9923.29999999702,5114,"{""Q0"":""jeqiu@ucsd.edu""}",jeqiu@ucsd.edu,survey-text,1,9422,0.0-1.0,,
62841a68e90286112039ee5a,9869-4e44453c-8991-4617-ad07-457b83deccfd,pilot_7,GGR_VLAT,sona,survey,32578.000000000004,47137.0,14559,"{""Q0"":""jgarciagutierrez@ucsd.edu""}",jgarciagutierrez@ucsd.edu,survey-text,1,46241,0.0-1.0,,
62841ccce90286112039ee9c,0353-404403c6-02b5-42c0-9052-105d07ba651f,pilot_7,GGR_VLAT,sona,survey,,,33156,,,survey-multi-choice,72,1441899,0.0-72.0,"{""participantSex"":""Female"",""participantEd"":""Bachelor's degree"",""judgedDifficulty"":""4"",""participantEffort"":""I tried my best on most questions"",""technicalDifficultiesBinary"":""No""}","[0,1,2,3,4]"
62841cd4e90286112039ee9e,0353-404403c6-02b5-42c0-9052-105d07ba651f,pilot_7,GGR_VLAT,sona,survey,,,7111,,,survey-multi-select,73,1449022,0.0-73.0,"{""participantEd_math"":["" Algebra"","" Calculus"","" Statistics""]}",[0]
62841ce5e90286112039eea1,0353-404403c6-02b5-42c0-9052-105d07ba651f,pilot_7,GGR_VLAT,sona,survey,1449565.200000003,1466713.5,17148,"{""TechnicalDifficultiesFreeResp"":"""",""participantAge"":""2003"",""participantYears"":""19"",""participantEd_field"":""Psychology"",""participantComments"":""""}",,survey-text,74,1466180,0.0-74.0,,
62841e91e90286112039eebb,9869-4e44453c-8991-4617-ad07-457b83deccfd,pilot_7,GGR_VLAT,sona,survey,,,34385,,,survey-multi-choice,72,1111631,0.0-72.0,"{""participantSex"":""Male"",""participantEd"":""High school graduate, diploma or equivalent"",""judgedDifficulty"":""4"",""participantEffort"":""I tried my best on each question"",""technicalDifficultiesBinary"":""No""}","[0,1,2,3,4]"
62841e9de90286112039eebc,9869-4e44453c-8991-4617-ad07-457b83deccfd,pilot_7,GGR_VLAT,sona,survey,,,11742,,,survey-multi-select,73,1123386,0.0-73.0,"{""participantEd_math"":["" Algebra"","" Calculus"","" Statistics""]}",[0]
62841ed0e90286112039eebd,9869-4e44453c-8991-4617-ad07-457b83deccfd,pilot_7,GGR_VLAT,sona,survey,1124318.0,1175366.0,51048,"{""TechnicalDifficultiesFreeResp"":""I did not encounter any technical difficulties. "",""participantAge"":""2003"",""participantYears"":""18"",""participantEd_field"":""Clinical Psychology"",""participantComments"":""The graphs and visuals were very unique.""}",,survey-text,74,1174443,0.0-74.0,,
62842178e90286112039eebe,3638-22af1d09-605d-4a56-a4a6-57f50f881ca6,pilot_7,GGR_VLAT,sona,survey,29554.40000000596,36516.20000000298,6962,"{""Q0"":""rbottone@ucsd.edu""}",rbottone@ucsd.edu,survey-text,1,35625,0.0-1.0,,
628421c6e90286112039eebf,7184-cbf4808a-5106-4267-8a0d-b5c806ed260a,pilot_7,GGR_VLAT,sona,survey,6425.20000000298,42420.70000000298,35996,"{""Q0"":""rbottone@ucsd.edu""}",rbottone@ucsd.edu,survey-text,1,41813,0.0-1.0,,
62842561e90286112039ef02,7184-cbf4808a-5106-4267-8a0d-b5c806ed260a,pilot_7,GGR_VLAT,sona,survey,,,13291,,,survey-multi-choice,72,965761,0.0-72.0,"{""participantSex"":""Female"",""participantEd"":""High school graduate, diploma or equivalent"",""judgedDifficulty"":""3"",""participantEffort"":""I tried my best on each question"",""technicalDifficultiesBinary"":""No""}","[0,1,2,3,4]"
62842567e90286112039ef03,7184-cbf4808a-5106-4267-8a0d-b5c806ed260a,pilot_7,GGR_VLAT,sona,survey,,,5377,,,survey-multi-select,73,971144,0.0-73.0,"{""participantEd_math"":["" Algebra"","" Calculus"","" Statistics""]}",[0]
62842580e90286112039ef04,7184-cbf4808a-5106-4267-8a0d-b5c806ed260a,pilot_7,GGR_VLAT,sona,survey,971755.200000003,996547.1000000089,24792,"{""TechnicalDifficultiesFreeResp"":"""",""participantAge"":""2001"",""participantYears"":""20"",""participantEd_field"":""Psychology & Political Science"",""participantComments"":""""}",,survey-text,74,995945,0.0-74.0,,
62842de8e90286112039ef05,5700-9dd8a720-006a-48ba-b49c-a473fcf0e39f,pilot_7,GGR_VLAT,sona,survey,11393.800000000745,18179.300000000745,6786,"{""Q0"":""amphan@ucsd.edu""}",amphan@ucsd.edu,survey-text,1,15504,0.0-1.0,,
628431e2e90286112039ef48,5700-9dd8a720-006a-48ba-b49c-a473fcf0e39f,pilot_7,GGR_VLAT,sona,survey,,,14986,,,survey-multi-choice,72,1033717,0.0-72.0,"{""participantSex"":""Female"",""participantEd"":""Bachelor's degree"",""judgedDifficulty"":""1"",""participantEffort"":""I tried my best on each question"",""technicalDifficultiesBinary"":""No""}","[0,1,2,3,4]"
628431e8e90286112039ef49,5700-9dd8a720-006a-48ba-b49c-a473fcf0e39f,pilot_7,GGR_VLAT,sona,survey,,,5336,,,survey-multi-select,73,1039063,0.0-73.0,"{""participantEd_math"":["" Algebra"","" Calculus"","" Statistics""]}",[0]
62843200e90286112039ef4a,5700-9dd8a720-006a-48ba-b49c-a473fcf0e39f,pilot_7,GGR_VLAT,sona,survey,1041764.1999999993,1066259.1999999993,24495,"{""TechnicalDifficultiesFreeResp"":""I did not encounter any technical difficulties."",""participantAge"":""2002"",""participantYears"":""19"",""participantEd_field"":""Public Health and Business Psych"",""participantComments"":""""}",,survey-text,74,1063566,0.0-74.0,,
628437f8e90286112039ef4b,6155-6897c381-e457-463c-b20d-1be2364a4707,pilot_7,GGR_VLAT,sona,survey,88697.40000003576,98146.20000004768,9449,"{""Q0"":""epandya@ucsd.edu""}",epandya@ucsd.edu,survey-text,1,95879,0.0-1.0,,
62843b90e90286112039ef8e,6155-6897c381-e457-463c-b20d-1be2364a4707,pilot_7,GGR_VLAT,sona,survey,,,24224,,,survey-multi-choice,72,1015504,0.0-72.0,"{""participantSex"":""Female"",""participantEd"":""Bachelor's degree"",""judgedDifficulty"":""4"",""participantEffort"":""I tried my best on each question"",""technicalDifficultiesBinary"":""No""}","[0,1,2,3,4]"
62843b95e90286112039ef8f,6155-6897c381-e457-463c-b20d-1be2364a4707,pilot_7,GGR_VLAT,sona,survey,,,4749,,,survey-multi-select,73,1020269,0.0-73.0,"{""participantEd_math"":["" Algebra"","" Calculus"","" Statistics""]}",[0]
62843bb4e90286112039ef90,6155-6897c381-e457-463c-b20d-1be2364a4707,pilot_7,GGR_VLAT,sona,survey,1022570.5,1053944.2000000477,31374,"{""TechnicalDifficultiesFreeResp"":"""",""participantAge"":""2002"",""participantYears"":""19"",""participantEd_field"":""developmental psychology (current)"",""participantComments"":""""}",,survey-text,74,1051754,0.0-74.0,,
6284672be90286112039ef91,2439-d6959390-f923-4138-b62e-84a412d31e43,pilot_7,GGR_VLAT,sona,survey,5512.5999999940395,11088.799999982119,5576,"{""Q0"":""lsantapresca@ucsd.edu""}",lsantapresca@ucsd.edu,survey-text,1,9957,0.0-1.0,,
6284678de90286112039ef98,4276-48228037-a1a8-4564-ad63-87c9001e090e,pilot_7,GGR_VLAT,sona,survey,18856.0,25613.0,6757,"{""Q0"":""anr012@ucsd.edu""}",anr012@ucsd.edu,survey-text,1,24582,0.0-1.0,,
62846c18e90286112039f000,2439-d6959390-f923-4138-b62e-84a412d31e43,pilot_7,GGR_VLAT,sona,survey,,,17647,,,survey-multi-choice,72,1271239,0.0-72.0,"{""participantSex"":""Do Not Wish To Say"",""participantEd"":""Bachelor's degree"",""judgedDifficulty"":""7"",""participantEffort"":""I tried my best on each question"",""technicalDifficultiesBinary"":""No""}","[0,1,2,3,4]"
62846c1fe90286112039f001,2439-d6959390-f923-4138-b62e-84a412d31e43,pilot_7,GGR_VLAT,sona,survey,,,6406,,,survey-multi-select,73,1277651,0.0-73.0,"{""participantEd_math"":["" Algebra"","" Calculus"","" Statistics""]}",[0]
62846c3de90286112039f003,2439-d6959390-f923-4138-b62e-84a412d31e43,pilot_7,GGR_VLAT,sona,survey,1278789.199999988,1309121.699999988,30333,"{""TechnicalDifficultiesFreeResp"":"""",""participantAge"":""2002"",""participantYears"":""19"",""participantEd_field"":""Cognitive Science"",""participantComments"":""Not very fun. Very boring, in fact. Would suggest changing to be more entertaining in the future.""}",,survey-text,74,1307989,0.0-74.0,,
62846eb9e90286112039f01a,4276-48228037-a1a8-4564-ad63-87c9001e090e,pilot_7,GGR_VLAT,sona,survey,,,23599,,,survey-multi-choice,72,1860065,0.0-72.0,"{""participantSex"":""Female"",""participantEd"":""High school graduate, diploma or equivalent"",""judgedDifficulty"":""4"",""participantEffort"":""I tried my best on each question"",""technicalDifficultiesBinary"":""No""}","[0,1,2,3,4]"
62846ec1e90286112039f01b,4276-48228037-a1a8-4564-ad63-87c9001e090e,pilot_7,GGR_VLAT,sona,survey,,,8403,,,survey-multi-select,73,1868478,0.0-73.0,"{""participantEd_math"":["" Algebra"","" Calculus"","" Statistics""]}",[0]
62846ee1e90286112039f01c,4276-48228037-a1a8-4564-ad63-87c9001e090e,pilot_7,GGR_VLAT,sona,survey,1869527.0,1901576.0,32049,"{""TechnicalDifficultiesFreeResp"":""no technical difficulties"",""participantAge"":""2002"",""participantYears"":""19"",""participantEd_field"":""public health major"",""participantComments"":""really interesting study!""}",,survey-text,74,1900533,0.0-74.0,,
62847b8de90286112039f01d,2690-24c42680-86fc-4f41-b853-8aa6f3eb172b,pilot_7,GGR_VLAT,sona,survey,43413.90000000596,56374.90000000596,12961,"{""Q0"":""ganativi@ucsd.edu""}",ganativi@ucsd.edu,survey-text,1,54167,0.0-1.0,,
62847fc1e90286112039f039,3366-ddff3c61-e12f-4b76-84da-6e0f913bf8c2,pilot_7,GGR_VLAT,sona,survey,12549.09999999404,27123.09999999404,14574,"{""Q0"":""achavarria@ucsd.edu""}",achavarria@ucsd.edu,survey-text,1,26067,0.0-1.0,,
6284845be90286112039f096,3366-ddff3c61-e12f-4b76-84da-6e0f913bf8c2,pilot_7,GGR_VLAT,sona,survey,,,21044,,,survey-multi-choice,72,1204173,0.0-72.0,"{""participantSex"":""Female"",""participantEd"":""High school graduate, diploma or equivalent"",""judgedDifficulty"":""2"",""participantEffort"":""I tried my best on each question"",""technicalDifficultiesBinary"":""No""}","[0,1,2,3,4]"
6284845fe90286112039f097,3366-ddff3c61-e12f-4b76-84da-6e0f913bf8c2,pilot_7,GGR_VLAT,sona,survey,,,4132,,,survey-multi-select,73,1208310,0.0-73.0,"{""participantEd_math"":["" Algebra"","" Calculus""]}",[0]
6284847be90286112039f098,3366-ddff3c61-e12f-4b76-84da-6e0f913bf8c2,pilot_7,GGR_VLAT,sona,survey,1209374.400000006,1237724.799999997,28350,"{""TechnicalDifficultiesFreeResp"":"""",""participantAge"":""2003"",""participantYears"":""18"",""participantEd_field"":""Cognitive Science"",""participantComments"":""Thank you, the study was very fun to complete!""}",,survey-text,74,1236668,0.0-74.0,,
6284865ee90286112039f0a6,2690-24c42680-86fc-4f41-b853-8aa6f3eb172b,pilot_7,GGR_VLAT,sona,survey,,,44165,,,survey-multi-choice,72,2822501,0.0-72.0,"{""participantSex"":""Female"",""participantEd"":""Bachelor's degree"",""judgedDifficulty"":""3"",""participantEffort"":""I tried my best on most questions"",""technicalDifficultiesBinary"":""No""}","[0,1,2,3,4]"
6284866ae90286112039f0a7,2690-24c42680-86fc-4f41-b853-8aa6f3eb172b,pilot_7,GGR_VLAT,sona,survey,,,12197,,,survey-multi-select,73,2834713,0.0-73.0,"{""participantEd_math"":["" Algebra"","" Calculus"","" Statistics""]}",[0]
6284868fe90286112039f0a8,2690-24c42680-86fc-4f41-b853-8aa6f3eb172b,pilot_7,GGR_VLAT,sona,survey,2836837.5,2873658.5,36821,"{""TechnicalDifficultiesFreeResp"":"""",""participantAge"":""2000"",""participantYears"":""22"",""participantEd_field"":""Psychology"",""participantComments"":""""}",,survey-text,74,2871549,0.0-74.0,,
62848a10e90286112039f0a9,5322-39d351a2-ca60-44ec-8590-5febe231d118,pilot_7,GGR_VLAT,sona,survey,220037.70000004768,235650.60000014305,15613,"{""Q0"":""aportega@ucsd.edu""}",aportega@ucsd.edu,survey-text,1,230031,0.0-1.0,,
628493ffe90286112039f0ec,5322-39d351a2-ca60-44ec-8590-5febe231d118,pilot_7,GGR_VLAT,sona,survey,,,37737,,,survey-multi-choice,73,2772838,0.0-72.0,"{""participantSex"":""Female"",""participantEd"":""High school graduate, diploma or equivalent"",""judgedDifficulty"":""4"",""participantEffort"":""I tried my best on each question"",""technicalDifficultiesBinary"":""No""}","[0,1,2,3,4]"
62849410e90286112039f0ed,5322-39d351a2-ca60-44ec-8590-5febe231d118,pilot_7,GGR_VLAT,sona,survey,,,16573,,,survey-multi-select,74,2789423,0.0-73.0,"{""participantEd_math"":["" Algebra"","" Calculus"","" Statistics""]}",[0]
62849427e90286112039f0ee,5322-39d351a2-ca60-44ec-8590-5febe231d118,pilot_7,GGR_VLAT,sona,survey,2795019.100000143,2817953.0,22934,"{""TechnicalDifficultiesFreeResp"":"""",""participantAge"":""2000"",""participantYears"":""22"",""participantEd_field"":""Psychology"",""participantComments"":""""}",,survey-text,75,2812368,0.0-74.0,,
6284a353e90286112039f0ef,7221-e83df14b-fd53-477b-98fb-09ac39922fef,pilot_7,GGR_VLAT,sona,survey,5567.399999976158,13203.300000011921,7636,"{""Q0"":""harissian@ucsd.edu""}",harissian@ucsd.edu,survey-text,1,11826,0.0-1.0,,
6284a373e90286112039f0f0,7711-d0d25d20-36d9-4efc-871a-e3da11da6f19,pilot_7,GGR_VLAT,sona,survey,7569.099999964237,13770.599999964237,6202,"{""Q0"":""harissian@ucsd.edu""}",harissian@ucsd.edu,survey-text,1,13105,0.0-1.0,,
6284a58ee90286112039f11f,7874-195d2b1b-2c4d-42e4-ac88-093400cd5be1,pilot_7,GGR_VLAT,sona,survey,42955.0,46958.60000000894,4004,"{""Q0"":""kssachde@ucsd.edu""}",kssachde@ucsd.edu,survey-text,1,44038,0.0-1.0,,
6284a5bbe90286112039f136,7711-d0d25d20-36d9-4efc-871a-e3da11da6f19,pilot_7,GGR_VLAT,sona,survey,,,11483,,,survey-multi-choice,80,597670,0.0-72.0,"{""participantSex"":""Male"",""participantEd"":""High school graduate, diploma or equivalent"",""judgedDifficulty"":""1"",""participantEffort"":""I tried my best on each question"",""technicalDifficultiesBinary"":""No""}","[0,1,2,3,4]"
6284a5c0e90286112039f138,7711-d0d25d20-36d9-4efc-871a-e3da11da6f19,pilot_7,GGR_VLAT,sona,survey,,,4910,,,survey-multi-select,81,602591,0.0-73.0,"{""participantEd_math"":["" Algebra"","" Calculus"","" Statistics""]}",[0]
6284a5d0e90286112039f139,7711-d0d25d20-36d9-4efc-871a-e3da11da6f19,pilot_7,GGR_VLAT,sona,survey,603271.8999999762,619241.6999999881,15970,"{""TechnicalDifficultiesFreeResp"":"""",""participantAge"":""2003"",""participantYears"":""18"",""participantEd_field"":""public health"",""participantComments"":""""}",,survey-text,82,618577,0.0-74.0,,
6284a91fe90286112039f179,7874-195d2b1b-2c4d-42e4-ac88-093400cd5be1,pilot_7,GGR_VLAT,sona,survey,,,24069,,,survey-multi-choice,72,956950,0.0-72.0,"{""participantSex"":""Male"",""participantEd"":""High school graduate, diploma or equivalent"",""judgedDifficulty"":""2"",""participantEffort"":""I tried my best on most questions"",""technicalDifficultiesBinary"":""No""}","[0,1,2,3,4]"
6284a925e90286112039f17a,7874-195d2b1b-2c4d-42e4-ac88-093400cd5be1,pilot_7,GGR_VLAT,sona,survey,,,6083,,,survey-multi-select,73,963048,0.0-73.0,"{""participantEd_math"":["" Algebra"","" Calculus"","" Statistics""]}",[0]
6284a941e90286112039f17b,7874-195d2b1b-2c4d-42e4-ac88-093400cd5be1,pilot_7,GGR_VLAT,sona,survey,965978.1000000089,993096.900000006,27119,"{""TechnicalDifficultiesFreeResp"":"""",""participantAge"":""2002"",""participantYears"":""19"",""participantEd_field"":""Computer Science and Mathematics"",""participantComments"":""Thank you!""}",,survey-text,74,990183,0.0-74.0,,
6284a9cfe90286112039f17c,4172-1e879421-ae30-475d-baf8-87ea209cfc15,pilot_7,GGR_VLAT,sona,survey,11173.099999999977,19408.399999999907,8235,"{""Q0"":""jiy051@ucsd.edu""}",jiy051@ucsd.edu,survey-text,1,17307,0.0-1.0,,
6284b0b6e90286112039f1bf,4172-1e879421-ae30-475d-baf8-87ea209cfc15,pilot_7,GGR_VLAT,sona,survey,,,49558,,,survey-multi-choice,72,1783943,0.0-72.0,"{""participantSex"":""Female"",""participantEd"":""Bachelor's degree"",""judgedDifficulty"":""4"",""participantEffort"":""I tried my best on most questions"",""technicalDifficultiesBinary"":""No""}","[0,1,2,3,4]"
6284b0c2e90286112039f1c0,4172-1e879421-ae30-475d-baf8-87ea209cfc15,pilot_7,GGR_VLAT,sona,survey,,,12100,,,survey-multi-select,73,1796062,0.0-73.0,"{""participantEd_math"":["" Calculus""]}",[0]
6284b0dce90286112039f1c1,4172-1e879421-ae30-475d-baf8-87ea209cfc15,pilot_7,GGR_VLAT,sona,survey,1798188.9999999998,1824067.0999999999,25878,"{""TechnicalDifficultiesFreeResp"":"""",""participantAge"":""2000"",""participantYears"":""21"",""participantEd_field"":""Economic"",""participantComments"":""""}",,survey-text,74,1821966,0.0-74.0,,
62851fe2e90286112039f1c2,4144-91ced2f5-94cd-44b9-bbb8-944d5d0cacb5,pilot_7,GGR_VLAT,sona,survey,14340.600000023842,24469.600000023842,10129,"{""Q0"":""kdelapen@ucsd.edu""}",kdelapen@ucsd.edu,survey-text,1,22909,0.0-1.0,,
62852472e90286112039f205,4144-91ced2f5-94cd-44b9-bbb8-944d5d0cacb5,pilot_7,GGR_VLAT,sona,survey,,,21118,,,survey-multi-choice,72,1190841,0.0-72.0,"{""participantSex"":""Female"",""participantEd"":""High school graduate, diploma or equivalent"",""judgedDifficulty"":""2"",""participantEffort"":""I tried my best on each question"",""technicalDifficultiesBinary"":""No""}","[0,1,2,3,4]"
62852476e90286112039f206,4144-91ced2f5-94cd-44b9-bbb8-944d5d0cacb5,pilot_7,GGR_VLAT,sona,survey,,,4093,,,survey-multi-select,73,1194941,0.0-73.0,"{""participantEd_math"":["" Algebra"","" Calculus"","" Statistics""]}",[0]
6285248be90286112039f207,4144-91ced2f5-94cd-44b9-bbb8-944d5d0cacb5,pilot_7,GGR_VLAT,sona,survey,1196509.1000000238,1217138.4000000358,20629,"{""TechnicalDifficultiesFreeResp"":"""",""participantAge"":""2002"",""participantYears"":""19"",""participantEd_field"":""Public Health "",""participantComments"":""It was cute""}",,survey-text,74,1215578,0.0-74.0,,
62853cbde90286112039f208,9455-c429eb53-e833-4c5c-b93b-7a01f7773b35,pilot_7,GGR_VLAT,sona,survey,6795.5,15546.0,8751,"{""Q0"":""lecalderon@ucsd.edu""}",lecalderon@ucsd.edu,survey-text,1,13277,0.0-1.0,,
6285458de90286112039f22b,3966-024ad84a-b22a-4ddb-934d-3ab666817bc5,pilot_7,GGR_VLAT,sona,survey,8103.0,16378.0,8275,"{""Q0"":""rlitvinsky@ucsd.edu""}",rlitvinsky@ucsd.edu,survey-text,1,13403,0.0-1.0,,
628545a2e90286112039f22c,9439-7cf0f013-bbf2-4eb0-8c86-7f51c666ca5a,pilot_7,GGR_VLAT,sona,survey,1015288.6000000238,1022894.5,7606,"{""Q0"":""lecalderon@ucsd.edu""}",lecalderon@ucsd.edu,survey-text,1,1407557,0.0-1.0,,
628545ace90286112039f22d,2531-efeda6f5-3366-40ac-bdda-14a11fc7a094,pilot_7,GGR_VLAT,sona,survey,1032712.8000000119,1039921.3000000119,7209,"{""Q0"":""lecalderon@ucsd.edu""}",lecalderon@ucsd.edu,survey-text,1,10330,0.0-1.0,,
62854706e90286112039f285,2531-efeda6f5-3366-40ac-bdda-14a11fc7a094,pilot_7,GGR_VLAT,sona,survey,,,28217,,,survey-multi-choice,72,356721,0.0-72.0,"{""participantSex"":""Female"",""participantEd"":""High school graduate, diploma or equivalent"",""judgedDifficulty"":""6"",""participantEffort"":""I didn't try very hard, or rushed through the questions"",""technicalDifficultiesBinary"":""No""}","[0,1,2,3,4]"
62854716e90286112039f287,2531-efeda6f5-3366-40ac-bdda-14a11fc7a094,pilot_7,GGR_VLAT,sona,survey,,,15256,,,survey-multi-select,73,371989,0.0-73.0,"{""participantEd_math"":["" Algebra"","" Calculus"","" Statistics""]}",[0]
62854758e90286112039f28b,2531-efeda6f5-3366-40ac-bdda-14a11fc7a094,pilot_7,GGR_VLAT,sona,survey,1401591.699999988,1468163.6000000238,66572,"{""TechnicalDifficultiesFreeResp"":""There was no technical issues "",""participantAge"":""2003"",""participantYears"":""18"",""participantEd_field"":""Human developmental sciences "",""participantComments"":""In the beginning it was easy but towards the end the questions kept getting challenging""}",,survey-text,74,438570,0.0-74.0,,
62854b51e90286112039f2b5,3966-024ad84a-b22a-4ddb-934d-3ab666817bc5,pilot_7,GGR_VLAT,sona,survey,,,24653,,,survey-multi-choice,72,1489588,0.0-72.0,"{""participantSex"":""Female"",""participantEd"":""Bachelor's degree"",""judgedDifficulty"":""3"",""participantEffort"":""I tried my best on most questions"",""technicalDifficultiesBinary"":""No""}","[0,1,2,3,4]"
62854b57e90286112039f2b6,3966-024ad84a-b22a-4ddb-934d-3ab666817bc5,pilot_7,GGR_VLAT,sona,survey,,,5976,,,survey-multi-select,73,1495572,0.0-73.0,"{""participantEd_math"":["" Algebra"","" Calculus"","" Statistics""]}",[0]
62854bafe90286112039f2b7,3966-024ad84a-b22a-4ddb-934d-3ab666817bc5,pilot_7,GGR_VLAT,sona,survey,1498519.0,1586141.0,87622,"{""TechnicalDifficultiesFreeResp"":"""",""participantAge"":""2003"",""participantYears"":""19"",""participantEd_field"":""neuroscience"",""participantComments"":""""}",,survey-text,74,1583210,0.0-74.0,,
62854c1fe90286112039f2b8,2514-e8a7a225-bb82-42a3-8276-17e7df9d2a20,pilot_7,GGR_VLAT,sona,survey,4535.0,15894.0,11359,"{""Q0"":""yol050@ucsd.edu""}",yol050@ucsd.edu,survey-text,1,14521,0.0-1.0,,
62854f73e90286112039f2fb,2514-e8a7a225-bb82-42a3-8276-17e7df9d2a20,pilot_7,GGR_VLAT,sona,survey,,,25374,,,survey-multi-choice,74,867434,0.0-72.0,"{""participantSex"":""Female"",""participantEd"":""Associate degree"",""judgedDifficulty"":""4"",""participantEffort"":""I tried my best on most questions"",""technicalDifficultiesBinary"":""No""}","[0,1,2,3,4]"
62854f7ce90286112039f2fc,2514-e8a7a225-bb82-42a3-8276-17e7df9d2a20,pilot_7,GGR_VLAT,sona,survey,,,8585,,,survey-multi-select,75,876026,0.0-73.0,"{""participantEd_math"":["" Algebra"","" Calculus"","" Statistics""]}",[0]
62854f9be90286112039f2fd,2514-e8a7a225-bb82-42a3-8276-17e7df9d2a20,pilot_7,GGR_VLAT,sona,survey,877395.0,908778.0,31383,"{""TechnicalDifficultiesFreeResp"":"""",""participantAge"":""2000"",""participantYears"":""22"",""participantEd_field"":""CS"",""participantComments"":""""}",,survey-text,76,907417,0.0-74.0,,
62857301e90286112039f2fe,2608-aa7a18eb-bc58-4ff7-8edf-34b81b4149bc,pilot_7,GGR_VLAT,sona,survey,40963.09999999404,47588.0,6625,"{""Q0"":""smidby@ucsd.edu""}",smidby@ucsd.edu,survey-text,1,46684,0.0-1.0,,
62857817e90286112039f341,2608-aa7a18eb-bc58-4ff7-8edf-34b81b4149bc,pilot_7,GGR_VLAT,sona,survey,,,22995,,,survey-multi-choice,72,1348073,0.0-72.0,"{""participantSex"":""Female"",""participantEd"":""High school graduate, diploma or equivalent"",""judgedDifficulty"":""3"",""participantEffort"":""I tried my best on each question"",""technicalDifficultiesBinary"":""No""}","[0,1,2,3,4]"
6285781de90286112039f342,2608-aa7a18eb-bc58-4ff7-8edf-34b81b4149bc,pilot_7,GGR_VLAT,sona,survey,,,5928,,,survey-multi-select,73,1354013,0.0-73.0,"{""participantEd_math"":["" Algebra"","" Statistics""]}",[0]
62857839e90286112039f343,2608-aa7a18eb-bc58-4ff7-8edf-34b81b4149bc,pilot_7,GGR_VLAT,sona,survey,1354936.599999994,1383207.8999999762,28271,"{""TechnicalDifficultiesFreeResp"":""I did not encounter any technical difficulties. "",""participantAge"":""2002"",""participantYears"":""20"",""participantEd_field"":""Psychology "",""participantComments"":""""}",,survey-text,74,1382296,0.0-74.0,,
62857faee90286112039f344,6226-6d511bf8-c1b5-4d35-b782-953bc8d2bfa6,pilot_7,GGR_VLAT,sona,survey,62739.0,69290.0,6551,"{""Q0"":""hcordeir@ucsd.edu""}",hcordeir@ucsd.edu,survey-text,1,67601,0.0-1.0,,
6285811fe90286112039f354,7660-02901691-6a8d-44cc-a30f-b657ef9b5e71,pilot_7,GGR_VLAT,sona,survey,8967.60000000894,19580.90000000596,10613,"{""Q0"":""oabuckley@ucsd.edu""}",oabuckley@ucsd.edu,survey-text,1,16665,0.0-1.0,,
62858467e90286112039f3bd,6226-6d511bf8-c1b5-4d35-b782-953bc8d2bfa6,pilot_7,GGR_VLAT,sona,survey,,,37626,,,survey-multi-choice,72,1276731,0.0-72.0,"{""participantSex"":""Female"",""participantEd"":""Bachelor's degree"",""judgedDifficulty"":""2"",""participantEffort"":""I tried my best on most questions"",""technicalDifficultiesBinary"":""No""}","[0,1,2,3,4]"
62858470e90286112039f3bf,6226-6d511bf8-c1b5-4d35-b782-953bc8d2bfa6,pilot_7,GGR_VLAT,sona,survey,,,8626,,,survey-multi-select,73,1285367,0.0-73.0,"{""participantEd_math"":["" Algebra"","" Calculus"","" Statistics""]}",[0]
62858483e90286112039f3c2,6226-6d511bf8-c1b5-4d35-b782-953bc8d2bfa6,pilot_7,GGR_VLAT,sona,survey,1287032.6000000238,1306206.7000000477,19174,"{""TechnicalDifficultiesFreeResp"":"""",""participantAge"":""2002"",""participantYears"":""220"",""participantEd_field"":""Public Health"",""participantComments"":""""}",,survey-text,74,1304553,0.0-74.0,,
6285850fe90286112039f3cd,7660-02901691-6a8d-44cc-a30f-b657ef9b5e71,pilot_7,GGR_VLAT,sona,survey,,,11942,,,survey-multi-choice,73,1025167,0.0-72.0,"{""participantSex"":""Female"",""participantEd"":""Associate degree"",""judgedDifficulty"":""1"",""participantEffort"":""I tried my best on each question"",""technicalDifficultiesBinary"":""No""}","[0,1,2,3,4]"
62858515e90286112039f3ce,7660-02901691-6a8d-44cc-a30f-b657ef9b5e71,pilot_7,GGR_VLAT,sona,survey,,,5741,,,survey-multi-select,74,1030921,0.0-73.0,"{""participantEd_math"":["" Algebra"","" Calculus"","" Statistics""]}",[0]
6285852de90286112039f3cf,7660-02901691-6a8d-44cc-a30f-b657ef9b5e71,pilot_7,GGR_VLAT,sona,survey,1033817.5,1057481.0,23664,"{""TechnicalDifficultiesFreeResp"":""i did not encounter any difficulties"",""participantAge"":""2001"",""participantYears"":""21"",""participantEd_field"":""bioengineering"",""participantComments"":""""}",,survey-text,75,1054597,0.0-74.0,,
628586a0e90286112039f3d0,0309-9a0f0e40-daa8-47e1-bf98-243de4fc26aa,pilot_7,GGR_VLAT,sona,survey,91749.6000000001,116517.0,24767,"{""Q0"":""s1huang@ucsd.edu""}",s1huang@ucsd.edu,survey-text,1,115237,0.0-1.0,,
62858b22e90286112039f3f0,0399-8982c668-eb51-42c1-8f25-c8ee6f36b235,pilot_7,GGR_VLAT,sona,survey,8415.700000017881,17256.09999999404,8840,"{""Q0"":""can003@ucsd.edu""}",can003@ucsd.edu,survey-text,1,14960,0.0-1.0,,
62858e20e90286112039f449,0399-8982c668-eb51-42c1-8f25-c8ee6f36b235,pilot_7,GGR_VLAT,sona,survey,,,20904,,,survey-multi-choice,72,780750,0.0-72.0,"{""participantSex"":""Female"",""participantEd"":""Bachelor's degree"",""judgedDifficulty"":""3"",""participantEffort"":""I tried my best on most questions"",""technicalDifficultiesBinary"":""No""}","[0,1,2,3,4]"
62858e24e90286112039f44a,0399-8982c668-eb51-42c1-8f25-c8ee6f36b235,pilot_7,GGR_VLAT,sona,survey,,,4031,,,survey-multi-select,73,784789,0.0-73.0,"{""participantEd_math"":["" Algebra"","" Calculus"","" Statistics""]}",[0]
62858e31e90286112039f44c,0399-8982c668-eb51-42c1-8f25-c8ee6f36b235,pilot_7,GGR_VLAT,sona,survey,787094.900000006,799532.8000000119,12438,"{""TechnicalDifficultiesFreeResp"":"""",""participantAge"":""2000"",""participantYears"":""21"",""participantEd_field"":"""",""participantComments"":""""}",,survey-text,74,797236,0.0-74.0,,
62858ee6e90286112039f453,8875-52075d9e-4099-459b-80f4-83bf7e4470bd,pilot_7,GGR_VLAT,sona,survey,11690.10000000149,21362.10000000149,9672,"{""Q0"":""ommartinez@ucsd.edu""}",ommartinez@ucsd.edu,survey-text,1,17653,0.0-1.0,,
62858fb4e90286112039f45a,0309-9a0f0e40-daa8-47e1-bf98-243de4fc26aa,pilot_7,GGR_VLAT,sona,survey,,,32446,,,survey-multi-choice,72,2439383,0.0-72.0,"{""participantSex"":""Female"",""participantEd"":""High school graduate, diploma or equivalent"",""judgedDifficulty"":""3"",""participantEffort"":""I tried my best on each question"",""technicalDifficultiesBinary"":""No""}","[0,1,2,3,4]"
62858fc6e90286112039f45b,0309-9a0f0e40-daa8-47e1-bf98-243de4fc26aa,pilot_7,GGR_VLAT,sona,survey,,,18398,,,survey-multi-select,73,2457796,0.0-73.0,"{""participantEd_math"":["" Algebra"","" Calculus"","" Statistics""]}",[0]
6285902be90286112039f45c,0309-9a0f0e40-daa8-47e1-bf98-243de4fc26aa,pilot_7,GGR_VLAT,sona,survey,2459094.8,2560335.0,101240,"{""TechnicalDifficultiesFreeResp"":""I did not encounter any technical difficulties."",""participantAge"":""2001"",""participantYears"":""21"",""participantEd_field"":""Business Psychology"",""participantComments"":""""}",,survey-text,74,2559051,0.0-74.0,,
6285a85de90286112039f45d,8324-ddcf547b-2b5b-4bf3-94aa-a41110379ecb,pilot_7,GGR_VLAT,sona,survey,202819.5,224365.19999999925,21546,"{""Q0"":""ax008053@ucsd.com""}",ax008053@ucsd.com,survey-text,1,223167,0.0-1.0,,
6285a886e90286112039f45e,8294-9aab781a-621b-4971-af6f-558a5184e9c1,pilot_7,GGR_VLAT,sona,survey,71817.09999999998,83340.39999999997,11523,"{""Q0"":""elcarlso@ucsd.edu""}",elcarlso@ucsd.edu,survey-text,1,81419,0.0-1.0,,
6285a8cbe90286112039f463,3899-f87f5769-3b3e-43a0-8165-26465ac05c49,pilot_7,GGR_VLAT,sona,survey,571187.799999997,581336.1000000015,10148,"{""Q0"":""ommartinez@ucsd.edu""}",ommartinez@ucsd.edu,survey-text,1,223267,0.0-1.0,,
6285acfce90286112039f4bd,8294-9aab781a-621b-4971-af6f-558a5184e9c1,pilot_7,GGR_VLAT,sona,survey,,,20604,,,survey-multi-choice,72,1223680,0.0-72.0,"{""participantSex"":""Female"",""participantEd"":""Bachelor's degree"",""judgedDifficulty"":""1"",""participantEffort"":""I tried my best on each question"",""technicalDifficultiesBinary"":""No""}","[0,1,2,3,4]"
6285ad01e90286112039f4be,8294-9aab781a-621b-4971-af6f-558a5184e9c1,pilot_7,GGR_VLAT,sona,survey,,,5289,,,survey-multi-select,73,1228976,0.0-73.0,"{""participantEd_math"":["" Algebra"","" Calculus"","" Statistics""]}",[0]
6285ad95e90286112039f4c0,8294-9aab781a-621b-4971-af6f-558a5184e9c1,pilot_7,GGR_VLAT,sona,survey,1230908.4000000001,1378942.8,148034,"{""TechnicalDifficultiesFreeResp"":"""",""participantAge"":""1999"",""participantYears"":""22"",""participantEd_field"":""mechanical engineering and psychology"",""participantComments"":""there were a couple questions that had very specific numbers rather than rounded numbers which was a bit confusing the first time I saw it\n\nalso i dont know if this was intentional or if I misread the chart but on the unemployment in the US figure the ranges were given 1-2% 2-3% etc, but the answers to the question were given in 2.3-3.4% etc ""}",,survey-text,74,1377021,0.0-74.0,,
6285b121e90286112039f4e7,8324-ddcf547b-2b5b-4bf3-94aa-a41110379ecb,pilot_7,GGR_VLAT,sona,survey,,,543847,,,survey-multi-choice,72,2467073,0.0-72.0,"{""participantSex"":"""",""participantEd"":"""",""judgedDifficulty"":""5"",""participantEffort"":""I tried my best on most questions"",""technicalDifficultiesBinary"":""No""}","[0,1,2,3,4]"
6285b126e90286112039f4e8,8324-ddcf547b-2b5b-4bf3-94aa-a41110379ecb,pilot_7,GGR_VLAT,sona,survey,,,5170,,,survey-multi-select,73,2472255,0.0-73.0,"{""participantEd_math"":["" Statistics""]}",[0]
6285b13be90286112039f4e9,8324-ddcf547b-2b5b-4bf3-94aa-a41110379ecb,pilot_7,GGR_VLAT,sona,survey,2473545.5,2493735.8999999985,20190,"{""TechnicalDifficultiesFreeResp"":"""",""participantAge"":""1998"",""participantYears"":""24"",""participantEd_field"":""Business"",""participantComments"":""""}",,survey-text,74,2492455,0.0-74.0,,
6285bbb9e90286112039f4ea,8105-a934242f-8adc-4c57-a448-8ea8b9adcde0,pilot_7,GGR_VLAT,sona,survey,8931.099999904633,15017.399999856949,6086,"{""Q0"":""m1acuna@ucsd.edu""}",m1acuna@ucsd.edu,survey-text,1,13486,0.0-1.0,,
6285bf80e90286112039f52d,8105-a934242f-8adc-4c57-a448-8ea8b9adcde0,pilot_7,GGR_VLAT,sona,survey,,,20756,,,survey-multi-choice,72,980482,0.0-72.0,"{""participantSex"":""Female"",""participantEd"":""High school graduate, diploma or equivalent"",""judgedDifficulty"":""3"",""participantEffort"":""I tried my best on most questions"",""technicalDifficultiesBinary"":""No""}","[0,1,2,3,4]"
6285bf87e90286112039f52e,8105-a934242f-8adc-4c57-a448-8ea8b9adcde0,pilot_7,GGR_VLAT,sona,survey,,,7119,,,survey-multi-select,73,987612,0.0-73.0,"{""participantEd_math"":["" Algebra"","" Calculus"","" Statistics""]}",[0]
6285bf98e90286112039f52f,8105-a934242f-8adc-4c57-a448-8ea8b9adcde0,pilot_7,GGR_VLAT,sona,survey,989208.5,1006298.899999857,17090,"{""TechnicalDifficultiesFreeResp"":"""",""participantAge"":""2003"",""participantYears"":""19"",""participantEd_field"":""Clinical Psychology"",""participantComments"":""""}",,survey-text,74,1004714,0.0-74.0,,
6285c7e5e90286112039f530,1341-4c7035d1-a5cd-4256-b6cd-318c97203271,pilot_7,GGR_VLAT,sona,survey,7272.0,12080.799999952316,4809,"{""Q0"":""ksuh@ucsd.edu""}",ksuh@ucsd.edu,survey-text,1,10153,0.0-1.0,,
6285cba5e90286112039f573,1341-4c7035d1-a5cd-4256-b6cd-318c97203271,pilot_7,GGR_VLAT,sona,survey,,,28385,,,survey-multi-choice,72,969878,0.0-72.0,"{""participantSex"":""Female"",""participantEd"":""High school graduate, diploma or equivalent"",""judgedDifficulty"":""1"",""participantEffort"":""I tried my best on most questions"",""technicalDifficultiesBinary"":""No""}","[0,1,2,3,4]"
6285cba9e90286112039f574,1341-4c7035d1-a5cd-4256-b6cd-318c97203271,pilot_7,GGR_VLAT,sona,survey,,,4927,,,survey-multi-select,73,974815,0.0-73.0,"{""participantEd_math"":["" Algebra"","" Calculus"","" Statistics""]}",[0]
6285cbc0e90286112039f575,1341-4c7035d1-a5cd-4256-b6cd-318c97203271,pilot_7,GGR_VLAT,sona,survey,976776.5,999704.0,22928,"{""TechnicalDifficultiesFreeResp"":""I did not encounter any technical difficulties"",""participantAge"":""2004"",""participantYears"":""18"",""participantEd_field"":""Human Biology"",""participantComments"":""""}",,survey-text,74,997749,0.0-74.0,,
6285d7eae90286112039f576,9668-c3456084-046d-4f1f-87bb-9b2fe5a26dcf,pilot_7,GGR_VLAT,sona,survey,20181.5,26976.59999999404,6795,"{""Q0"":""ckl002@ucsd.edu""}",ckl002@ucsd.edu,survey-text,1,25558,0.0-1.0,,
6285db87e90286112039f5b9,9668-c3456084-046d-4f1f-87bb-9b2fe5a26dcf,pilot_7,GGR_VLAT,sona,survey,,,19393,,,survey-multi-choice,72,950833,0.0-72.0,"{""participantSex"":""Female"",""participantEd"":""Bachelor's degree"",""judgedDifficulty"":""5"",""participantEffort"":""I tried my best on most questions"",""technicalDifficultiesBinary"":""No""}","[0,1,2,3,4]"
6285db8de90286112039f5ba,9668-c3456084-046d-4f1f-87bb-9b2fe5a26dcf,pilot_7,GGR_VLAT,sona,survey,,,5612,,,survey-multi-select,73,956459,0.0-73.0,"{""participantEd_math"":["" Algebra"","" Calculus"","" Statistics""]}",[0]
6285dba9e90286112039f5bb,9668-c3456084-046d-4f1f-87bb-9b2fe5a26dcf,pilot_7,GGR_VLAT,sona,survey,957893.400000006,986463.0,28570,"{""TechnicalDifficultiesFreeResp"":""I did not encounter any technical difficulties."",""participantAge"":""2000"",""participantYears"":""21"",""participantEd_field"":""Computer Science"",""participantComments"":""The images were very nice""}",,survey-text,74,985045,0.0-74.0,,
6285e6b7e90286112039f5bc,7903-fdfc415e-7256-486c-8d37-59fee9976e4f,pilot_7,GGR_VLAT,sona,survey,5918.600000023842,8746.199999988079,2828,"{""Q0"":""sma@ucsd.edu""}",sma@ucsd.edu,survey-text,1,7700,0.0-1.0,,
6285ea09e90286112039f5ff,7903-fdfc415e-7256-486c-8d37-59fee9976e4f,pilot_7,GGR_VLAT,sona,survey,,,13688,,,survey-multi-choice,73,858589,0.0-72.0,"{""participantSex"":""Female"",""participantEd"":""Bachelor's degree"",""judgedDifficulty"":""2"",""participantEffort"":""I tried my best on most questions"",""technicalDifficultiesBinary"":""No""}","[0,1,2,3,4]"
6285ea0ee90286112039f600,7903-fdfc415e-7256-486c-8d37-59fee9976e4f,pilot_7,GGR_VLAT,sona,survey,,,4955,,,survey-multi-select,74,863559,0.0-73.0,"{""participantEd_math"":["" Algebra"","" Calculus"","" Statistics""]}",[0]
6285ea1be90286112039f601,7903-fdfc415e-7256-486c-8d37-59fee9976e4f,pilot_7,GGR_VLAT,sona,survey,864623.3999999762,877495.1000000238,12872,"{""TechnicalDifficultiesFreeResp"":""N/A"",""participantAge"":""2000"",""participantYears"":""21"",""participantEd_field"":""CS"",""participantComments"":""N/A""}",,survey-text,75,876447,0.0-74.0,,
6286729fe90286112039f602,3205-246c8a9c-b5fa-424a-83da-31b6f26d422a,pilot_7,GGR_VLAT,sona,survey,12874.0,21421.0,8547,"{""Q0"":""ebeavers@ucsd.edu""}",ebeavers@ucsd.edu,survey-text,1,19955,0.0-1.0,,
628675a8e90286112039f617,6092-7bfe1466-23d6-4f81-afce-6636198e17fa,pilot_7,GGR_VLAT,sona,survey,67804.40000000596,73652.0,5848,"{""Q0"":""thamon@ucsd.edu""}",thamon@ucsd.edu,survey-text,1,72383,0.0-1.0,,
628679e0e90286112039f66f,8875-28c56d71-24c7-48ae-834f-9399885ce46c,pilot_7,GGR_VLAT,sona,survey,10737.0,23474.0,12737,"{""Q0"":""cportales@ucsd.edu""}",cportales@ucsd.edu,survey-text,1,21959,0.0-1.0,,
62867a71e90286112039f67d,6092-7bfe1466-23d6-4f81-afce-6636198e17fa,pilot_7,GGR_VLAT,sona,survey,,,19628,,,survey-multi-choice,72,1296703,0.0-72.0,"{""participantSex"":""Female"",""participantEd"":""Associate degree"",""judgedDifficulty"":""4"",""participantEffort"":""I tried my best on each question"",""technicalDifficultiesBinary"":""No""}","[0,1,2,3,4]"
62867a78e90286112039f67e,6092-7bfe1466-23d6-4f81-afce-6636198e17fa,pilot_7,GGR_VLAT,sona,survey,,,7084,,,survey-multi-select,73,1303794,0.0-73.0,"{""participantEd_math"":["" Algebra"","" Calculus"","" Statistics""]}",[0]
62867aa6e90286112039f680,6092-7bfe1466-23d6-4f81-afce-6636198e17fa,pilot_7,GGR_VLAT,sona,survey,1305077.5,1350909.0,45832,"{""TechnicalDifficultiesFreeResp"":""n/a"",""participantAge"":""2002"",""participantYears"":""20"",""participantEd_field"":""junior in Psychology- planning on pursuing PhD"",""participantComments"":""Thank you! This was one of my favorite studies so far on SONA :)""}",,survey-text,74,1349641,0.0-74.0,,
62867ccde90286112039f68d,3205-246c8a9c-b5fa-424a-83da-31b6f26d422a,pilot_7,GGR_VLAT,sona,survey,,,29224,,,survey-multi-choice,72,2626323,0.0-72.0,"{""participantSex"":""Female"",""participantEd"":""Associate degree"",""judgedDifficulty"":""2"",""participantEffort"":""I tried my best on most questions"",""technicalDifficultiesBinary"":""No""}","[0,1,2,3,4]"
62867cd8e90286112039f68e,3205-246c8a9c-b5fa-424a-83da-31b6f26d422a,pilot_7,GGR_VLAT,sona,survey,,,11184,,,survey-multi-select,73,2637524,0.0-73.0,"{""participantEd_math"":["" Algebra"","" Statistics""]}",[0]
62867cf4e90286112039f68f,3205-246c8a9c-b5fa-424a-83da-31b6f26d422a,pilot_7,GGR_VLAT,sona,survey,2639049.0,2666582.0,27533,"{""TechnicalDifficultiesFreeResp"":"""",""participantAge"":""1990"",""participantYears"":""31"",""participantEd_field"":""Psychology"",""participantComments"":""""}",,survey-text,74,2665071,0.0-74.0,,
6286a200e90286112039f690,0418-705559e7-e2f5-4acc-9f3f-94510ba88bca,pilot_7,GGR_VLAT,sona,survey,159234.20000004768,196650.90000003576,37417,"{""Q0"":""ceberkes@ucsd.edu ""}",ceberkes@ucsd.edu ,survey-text,1,195383,0.0-1.0,,
6286a7f4e90286112039f6d3,0418-705559e7-e2f5-4acc-9f3f-94510ba88bca,pilot_7,GGR_VLAT,sona,survey,,,26533,,,survey-multi-choice,72,1719373,0.0-72.0,"{""participantSex"":""Male"",""participantEd"":""High school graduate, diploma or equivalent"",""judgedDifficulty"":""3"",""participantEffort"":""I tried my best on most questions"",""technicalDifficultiesBinary"":""No""}","[0,1,2,3,4]"
6286a7fce90286112039f6d4,0418-705559e7-e2f5-4acc-9f3f-94510ba88bca,pilot_7,GGR_VLAT,sona,survey,,,7807,,,survey-multi-select,73,1727184,0.0-73.0,"{""participantEd_math"":["" Algebra"","" Calculus""]}",[0]
6286a812e90286112039f6d5,0418-705559e7-e2f5-4acc-9f3f-94510ba88bca,pilot_7,GGR_VLAT,sona,survey,1728452.5,1751042.1000000238,22590,"{""TechnicalDifficultiesFreeResp"":"""",""participantAge"":""2003"",""participantYears"":""18"",""participantEd_field"":""Public Health"",""participantComments"":""""}",,survey-text,74,1749780,0.0-74.0,,
6286a9ffe90286112039f6d6,7375-284c8228-f662-476e-a2e6-ffb7b2e225ac,pilot_7,GGR_VLAT,sona,survey,23925.899999976158,35134.60000002384,11209,"{""Q0"":""jxaysana@ucsd.edu""}",jxaysana@ucsd.edu,survey-text,1,34017,0.0-1.0,,
6286ae58e90286112039f719,7375-284c8228-f662-476e-a2e6-ffb7b2e225ac,pilot_7,GGR_VLAT,sona,survey,,,21469,,,survey-multi-choice,72,1146821,0.0-72.0,"{""participantSex"":""Male"",""participantEd"":""Bachelor's degree"",""judgedDifficulty"":""4"",""participantEffort"":""I tried my best on most questions"",""technicalDifficultiesBinary"":""No""}","[0,1,2,3,4]"
6286ae5ee90286112039f71a,7375-284c8228-f662-476e-a2e6-ffb7b2e225ac,pilot_7,GGR_VLAT,sona,survey,,,5960,,,survey-multi-select,73,1152789,0.0-73.0,"{""participantEd_math"":["" Algebra"","" Calculus""]}",[0]
6286ae79e90286112039f71b,7375-284c8228-f662-476e-a2e6-ffb7b2e225ac,pilot_7,GGR_VLAT,sona,survey,1153924.699999988,1181297.0,27372,"{""TechnicalDifficultiesFreeResp"":""none"",""participantAge"":""2000"",""participantYears"":""22"",""participantEd_field"":""psyc"",""participantComments"":""""}",,survey-text,74,1180167,0.0-74.0,,
6286b23ee90286112039f71c,9855-506d6692-c8d7-477a-a5da-03515ea72763,pilot_7,GGR_VLAT,sona,survey,72234.80000007153,81092.39999997616,8858,"{""Q0"":""snosborn@UCSD.edu""}",snosborn@UCSD.edu,survey-text,1,80184,0.0-1.0,,
6286b8fde90286112039f747,8933-f7358658-959a-4fd1-bab8-e4897f6ee94d,pilot_7,GGR_VLAT,sona,survey,28659.400000000373,47005.09999999963,18346,"{""Q0"":""jarroyo@ucsd.edu""}",jarroyo@ucsd.edu,survey-text,1,46174,0.0-1.0,,
6286bb7be90286112039f776,9855-506d6692-c8d7-477a-a5da-03515ea72763,pilot_7,GGR_VLAT,sona,survey,,,25104,,,survey-multi-choice,72,2445051,0.0-72.0,"{""participantSex"":""Female"",""participantEd"":""Bachelor's degree"",""judgedDifficulty"":""4"",""participantEffort"":""I tried my best on each question"",""technicalDifficultiesBinary"":""No""}","[0,1,2,3,4]"
6286bb82e90286112039f778,9855-506d6692-c8d7-477a-a5da-03515ea72763,pilot_7,GGR_VLAT,sona,survey,,,7421,,,survey-multi-select,73,2452480,0.0-73.0,"{""participantEd_math"":["" Algebra"","" Calculus"","" Statistics""]}",[0]
6286bbc7e90286112039f77a,9855-506d6692-c8d7-477a-a5da-03515ea72763,pilot_7,GGR_VLAT,sona,survey,2453399.600000024,2522133.3000000715,68734,"{""TechnicalDifficultiesFreeResp"":"""",""participantAge"":""1993"",""participantYears"":""28"",""participantEd_field"":""Cognitive Science"",""participantComments"":""This was really neat, some of the graphs looked harder to read at first, but I found it somewhat easy to answer most of the questions asked.""}",,survey-text,74,2521225,0.0-74.0,,
6286bf6ee90286112039f79d,3919-60895881-12a7-4982-9731-6f51850fb689,pilot_7,GGR_VLAT,sona,survey,85810.0,95242.0,9432,"{""Q0"":""aqyiu@ucsd.edu""}",aqyiu@ucsd.edu,survey-text,1,94587,0.0-1.0,,
6286c02ce90286112039f7a6,8933-f7358658-959a-4fd1-bab8-e4897f6ee94d,pilot_7,GGR_VLAT,sona,survey,,,43557,,,survey-multi-choice,72,1885032,0.0-72.0,"{""participantSex"":""Female"",""participantEd"":""Bachelor's degree"",""judgedDifficulty"":""3"",""participantEffort"":""I tried my best on each question"",""technicalDifficultiesBinary"":""No""}","[0,1,2,3,4]"
6286c033e90286112039f7a7,8933-f7358658-959a-4fd1-bab8-e4897f6ee94d,pilot_7,GGR_VLAT,sona,survey,,,6842,,,survey-multi-select,73,1891883,0.0-73.0,"{""participantEd_math"":["" Algebra"","" Calculus"","" Statistics""]}",[0]
6286c0a4e90286112039f7a8,8933-f7358658-959a-4fd1-bab8-e4897f6ee94d,pilot_7,GGR_VLAT,sona,survey,1892754.5,2005708.0999999996,112954,"{""TechnicalDifficultiesFreeResp"":"""",""participantAge"":""1998"",""participantYears"":""24"",""participantEd_field"":""Cognitive Science"",""participantComments"":""Not sure if the images/font were small on purpose, but that made it harder to solve some questions. Like the unemployment map, it was difficult to discern the colors corresponding to different percentages because of how tiny the circles were.""}",,survey-text,74,2004913,0.0-74.0,,
6286c6f0e90286112039f7eb,3919-60895881-12a7-4982-9731-6f51850fb689,pilot_7,GGR_VLAT,sona,survey,,,22789,,,survey-multi-choice,73,2017072,0.0-72.0,"{""participantSex"":""Male"",""participantEd"":""High school graduate, diploma or equivalent"",""judgedDifficulty"":""4"",""participantEffort"":""I started out trying hard, but gave up at some point"",""technicalDifficultiesBinary"":""No""}","[0,1,2,3,4]"
6286c6f5e90286112039f7ec,3919-60895881-12a7-4982-9731-6f51850fb689,pilot_7,GGR_VLAT,sona,survey,,,4629,,,survey-multi-select,74,2021704,0.0-73.0,"{""participantEd_math"":["" Algebra"","" Calculus""]}",[0]
6286c703e90286112039f7ed,3919-60895881-12a7-4982-9731-6f51850fb689,pilot_7,GGR_VLAT,sona,survey,2022363.0,2036526.0,14163,"{""TechnicalDifficultiesFreeResp"":"""",""participantAge"":""2001"",""participantYears"":""20"",""participantEd_field"":""Cognitive Science"",""participantComments"":""""}",,survey-text,75,2035871,0.0-74.0,,
6286cd26e90286112039f7ee,8352-4ddc0192-0808-4435-85bc-1176a49b62e3,pilot_7,GGR_VLAT,sona,survey,9363.90000000596,14403.300000011921,5039,"{""Q0"":""tll001@ucsd.edu""}",tll001@ucsd.edu,survey-text,1,13630,0.0-1.0,,
6286d350e90286112039f831,8352-4ddc0192-0808-4435-85bc-1176a49b62e3,pilot_7,GGR_VLAT,sona,survey,,,25088,,,survey-multi-choice,72,1591552,0.0-72.0,"{""participantSex"":""Female"",""participantEd"":""Bachelor's degree"",""judgedDifficulty"":""3"",""participantEffort"":""I tried my best on each question"",""technicalDifficultiesBinary"":""No""}","[0,1,2,3,4]"
6286d355e90286112039f832,8352-4ddc0192-0808-4435-85bc-1176a49b62e3,pilot_7,GGR_VLAT,sona,survey,,,5142,,,survey-multi-select,73,1596708,0.0-73.0,"{""participantEd_math"":["" Algebra"","" Calculus""]}",[0]
6286d377e90286112039f833,8352-4ddc0192-0808-4435-85bc-1176a49b62e3,pilot_7,GGR_VLAT,sona,survey,1597500.7000000179,1632165.800000012,34665,"{""TechnicalDifficultiesFreeResp"":""I did not encounter any technical difficulties,"",""participantAge"":""2002"",""participantYears"":""19"",""participantEd_field"":""Cognitive Science (Design & Interaction)"",""participantComments"":""None""}",,survey-text,74,1631389,0.0-74.0,,
6286df6ae90286112039f834,9543-f48b88d4-c66e-4b2e-bf1b-96897a486ae5,pilot_7,GGR_VLAT,sona,survey,24477.799999999814,40447.5,15970,"{""Q0"":""sknapp@ucsd.edu""}",sknapp@ucsd.edu,survey-text,1,35150,0.0-1.0,,
6286e47be90286112039f877,9543-f48b88d4-c66e-4b2e-bf1b-96897a486ae5,pilot_7,GGR_VLAT,sona,survey,,,24001,,,survey-multi-choice,72,1331436,0.0-72.0,"{""participantSex"":""Female"",""participantEd"":""High school graduate, diploma or equivalent"",""judgedDifficulty"":""4"",""participantEffort"":""I tried my best on most questions"",""technicalDifficultiesBinary"":""No""}","[0,1,2,3,4]"
6286e482e90286112039f878,9543-f48b88d4-c66e-4b2e-bf1b-96897a486ae5,pilot_7,GGR_VLAT,sona,survey,,,7855,,,survey-multi-select,73,1339300,0.0-73.0,"{""participantEd_math"":["" Statistics""]}",[0]
6286e493e90286112039f879,9543-f48b88d4-c66e-4b2e-bf1b-96897a486ae5,pilot_7,GGR_VLAT,sona,survey,1344698.0,1361190.2999999998,16492,"{""TechnicalDifficultiesFreeResp"":"""",""participantAge"":""2001"",""participantYears"":""20"",""participantEd_field"":""Theatre"",""participantComments"":""""}",,survey-text,74,1355801,0.0-74.0,,
6286e506e90286112039f87a,9985-f2d64e00-a9fe-4964-b668-35ecb53a19b9,pilot_7,GGR_VLAT,sona,survey,24661.5,30133.79999999702,5472,"{""Q0"":""mpruitt@ucsd.edu""}",mpruitt@ucsd.edu,survey-text,1,27788,0.0-1.0,,
6286ea68e90286112039f8bd,9985-f2d64e00-a9fe-4964-b668-35ecb53a19b9,pilot_7,GGR_VLAT,sona,survey,,,20177,,,survey-multi-choice,72,1405730,0.0-72.0,"{""participantSex"":""Female"",""participantEd"":""High school graduate, diploma or equivalent"",""judgedDifficulty"":""2"",""participantEffort"":""I tried my best on most questions"",""technicalDifficultiesBinary"":""No""}","[0,1,2,3,4]"
6286ea6ee90286112039f8be,9985-f2d64e00-a9fe-4964-b668-35ecb53a19b9,pilot_7,GGR_VLAT,sona,survey,,,6393,,,survey-multi-select,73,1412135,0.0-73.0,"{""participantEd_math"":["" Algebra"","" Statistics""]}",[0]
6286ea82e90286112039f8bf,9985-f2d64e00-a9fe-4964-b668-35ecb53a19b9,pilot_7,GGR_VLAT,sona,survey,1414511.5,1434200.5,19689,"{""TechnicalDifficultiesFreeResp"":"""",""participantAge"":""2003"",""participantYears"":""19"",""participantEd_field"":""Psychology"",""participantComments"":""""}",,survey-text,74,1431834,0.0-74.0,,
6286eb2ae90286112039f8c0,0626-0897c93b-6fc3-4183-881f-8d3f136a2c8f,pilot_7,GGR_VLAT,sona,survey,5634.699999999255,14094.0,8459,"{""Q0"":""ckraspur@ucsd.edu""}",ckraspur@ucsd.edu,survey-text,1,12217,0.0-1.0,,
6286f088e90286112039f903,0626-0897c93b-6fc3-4183-881f-8d3f136a2c8f,pilot_7,GGR_VLAT,sona,survey,,,13750,,,survey-multi-choice,72,1385809,0.0-72.0,"{""participantSex"":""Female"",""participantEd"":""Bachelor's degree"",""judgedDifficulty"":""2"",""participantEffort"":""I tried my best on each question"",""technicalDifficultiesBinary"":""No""}","[0,1,2,3,4]"
6286f08de90286112039f904,0626-0897c93b-6fc3-4183-881f-8d3f136a2c8f,pilot_7,GGR_VLAT,sona,survey,,,5077,,,survey-multi-select,73,1390895,0.0-73.0,"{""participantEd_math"":["" Algebra"","" Calculus"","" Statistics""]}",[0]
6286f09ae90286112039f905,0626-0897c93b-6fc3-4183-881f-8d3f136a2c8f,pilot_7,GGR_VLAT,sona,survey,1392877.8000000007,1406598.0999999978,13720,"{""TechnicalDifficultiesFreeResp"":"""",""participantAge"":""2000"",""participantYears"":""21"",""participantEd_field"":""biology"",""participantComments"":""""}",,survey-text,74,1404623,0.0-74.0,,
62871b28e90286112039f906,7026-85a8964e-1585-4036-88a2-3be1c3943bce,pilot_7,GGR_VLAT,sona,survey,5096.0,14344.0,9248,"{""Q0"":""Xmu@ucsd.edu""}",Xmu@ucsd.edu,survey-text,1,13344,0.0-1.0,,
62871be8e90286112039f90b,1816-94bcf2c6-dbca-49af-9b52-f57486e1db72,pilot_7,GGR_VLAT,sona,survey,200975.0,206410.0,5435,"{""Q0"":""Xmu@ucsd.edu""}",Xmu@ucsd.edu,survey-text,1,13852,0.0-1.0,,
6287216be90286112039f94e,1816-94bcf2c6-dbca-49af-9b52-f57486e1db72,pilot_7,GGR_VLAT,sona,survey,,,42337,,,survey-multi-choice,72,1425182,0.0-72.0,"{""participantSex"":""Male"",""participantEd"":""Bachelor's degree"",""judgedDifficulty"":""3"",""participantEffort"":""I tried my best on most questions"",""technicalDifficultiesBinary"":""No""}","[0,1,2,3,4]"
62872175e90286112039f94f,1816-94bcf2c6-dbca-49af-9b52-f57486e1db72,pilot_7,GGR_VLAT,sona,survey,,,10374,,,survey-multi-select,73,1435571,0.0-73.0,"{""participantEd_math"":["" Algebra"","" Statistics""]}",[0]
62872199e90286112039f950,1816-94bcf2c6-dbca-49af-9b52-f57486e1db72,pilot_7,GGR_VLAT,sona,survey,1628202.0,1663779.0,35577,"{""TechnicalDifficultiesFreeResp"":"""",""participantAge"":""2000"",""participantYears"":""22"",""participantEd_field"":""Business "",""participantComments"":""""}",,survey-text,74,1471166,0.0-74.0,,
62873ea0e90286112039f951,6551-0152e67b-c50d-4e4e-9bb4-c1123e7409af,pilot_7,GGR_VLAT,sona,survey,34642.5,50241.90000000037,15599,"{""Q0"":""csthach@ucsd.edu""}",csthach@ucsd.edu,survey-text,1,47387,0.0-1.0,,
6287f505e90286112039f952,7141-1e929732-daa4-4ba6-9a6b-b5bd68a65bfc,pilot_7,GGR_VLAT,sona,survey,8889.89999999106,20048.0,11158,"{""Q0"":""astrahm@ucsd.edu""}",astrahm@ucsd.edu,survey-text,1,18861,0.0-1.0,,
6287f797e90286112039f96e,4515-873aaa2c-6611-49c5-9063-55f6c1033c60,pilot_7,GGR_VLAT,sona,survey,18156.0,26606.0,8450,"{""Q0"":""Dac001@ucsd.edu""}",Dac001@ucsd.edu,survey-text,1,16514,0.0-1.0,,
6287faa2e90286112039f9ae,7141-1e929732-daa4-4ba6-9a6b-b5bd68a65bfc,pilot_7,GGR_VLAT,sona,survey,,,49224,,,survey-multi-choice,72,1455199,0.0-72.0,"{""participantSex"":""Female"",""participantEd"":""Bachelor's degree"",""judgedDifficulty"":""6"",""participantEffort"":""I tried my best on each question"",""technicalDifficultiesBinary"":""No""}","[0,1,2,3,4]"
6287faabe90286112039f9af,7141-1e929732-daa4-4ba6-9a6b-b5bd68a65bfc,pilot_7,GGR_VLAT,sona,survey,,,8929,,,survey-multi-select,73,1464137,0.0-73.0,"{""participantEd_math"":["" Algebra"","" Calculus"","" Statistics""]}",[0]
6287facde90286112039f9b3,7141-1e929732-daa4-4ba6-9a6b-b5bd68a65bfc,pilot_7,GGR_VLAT,sona,survey,1465364.700000003,1499454.700000003,34090,"{""TechnicalDifficultiesFreeResp"":""Did not encounter any "",""participantAge"":""2001"",""participantYears"":""21"",""participantEd_field"":""Linguistics and psychology "",""participantComments"":""no feedback""}",,survey-text,74,1498236,0.0-74.0,,
6287ff46e90286112039f9db,4515-873aaa2c-6611-49c5-9063-55f6c1033c60,pilot_7,GGR_VLAT,sona,survey,,,22602,,,survey-multi-choice,72,1984259,0.0-72.0,"{""participantSex"":""Male"",""participantEd"":""Associate degree"",""judgedDifficulty"":""3"",""participantEffort"":""I tried my best on each question"",""technicalDifficultiesBinary"":""No""}","[0,1,2,3,4]"
6287ff4be90286112039f9dc,4515-873aaa2c-6611-49c5-9063-55f6c1033c60,pilot_7,GGR_VLAT,sona,survey,,,4810,,,survey-multi-select,73,1989075,0.0-73.0,"{""participantEd_math"":["" Algebra"","" Calculus"","" Statistics""]}",[0]
6287ff52e90286112039f9dd,4515-873aaa2c-6611-49c5-9063-55f6c1033c60,pilot_7,GGR_VLAT,sona,survey,1999279.0,2005762.0,6483,"{""TechnicalDifficultiesFreeResp"":"""",""participantAge"":""2002"",""participantYears"":"""",""participantEd_field"":"""",""participantComments"":""""}",,survey-text,74,1995568,0.0-74.0,,
62880f12e90286112039f9de,1775-3dd683c1-d27e-4540-a462-b33a8e22e7db,pilot_7,GGR_VLAT,sona,survey,5334.699999999255,40826.0,35491,"{""Q0"":""ptt001@ucsd.edu""}",ptt001@ucsd.edu,survey-text,1,39481,0.0-1.0,,
6288104fe90286112039fa21,1775-3dd683c1-d27e-4540-a462-b33a8e22e7db,pilot_7,GGR_VLAT,sona,survey,,,23445,,,survey-multi-choice,76,356547,0.0-72.0,"{""participantSex"":""Female"",""participantEd"":""Associate degree"",""judgedDifficulty"":""5"",""participantEffort"":""I started out trying hard, but gave up at some point"",""technicalDifficultiesBinary"":""No""}","[0,1,2,3,4]"
62881056e90286112039fa22,1775-3dd683c1-d27e-4540-a462-b33a8e22e7db,pilot_7,GGR_VLAT,sona,survey,,,6765,,,survey-multi-select,77,363323,0.0-73.0,"{""participantEd_math"":["" Algebra"","" Calculus"","" Statistics""]}",[0]
6288107ae90286112039fa23,1775-3dd683c1-d27e-4540-a462-b33a8e22e7db,pilot_7,GGR_VLAT,sona,survey,364702.8999999985,401383.19999999925,36680,"{""TechnicalDifficultiesFreeResp"":""I did not encounter  any technical difficulties"",""participantAge"":""1995"",""participantYears"":""26"",""participantEd_field"":""Cognitive Science"",""participantComments"":""I had fun""}",,survey-text,78,400010,0.0-74.0,,
628822a9e90286112039fa24,3846-461d2cb2-6415-4224-bb7d-17eb418113a9,pilot_7,GGR_VLAT,sona,survey,23828.69999998808,37573.80000001192,13745,"{""Q0"":""vrvasquez@ucsd.edu""}",vrvasquez@ucsd.edu,survey-text,1,35823,0.0-1.0,,
6288264ce90286112039fa67,3846-461d2cb2-6415-4224-bb7d-17eb418113a9,pilot_7,GGR_VLAT,sona,survey,,,24099,,,survey-multi-choice,72,966708,0.0-72.0,"{""participantSex"":""Do Not Wish To Say"",""participantEd"":""Associate degree"",""judgedDifficulty"":""4"",""participantEffort"":""I started out trying hard, but gave up at some point"",""technicalDifficultiesBinary"":""No""}","[0,1,2,3,4]"
62882653e90286112039fa68,3846-461d2cb2-6415-4224-bb7d-17eb418113a9,pilot_7,GGR_VLAT,sona,survey,,,7676,,,survey-multi-select,73,974397,0.0-73.0,"{""participantEd_math"":["" Algebra"","" Statistics""]}",[0]
62882674e90286112039fa69,3846-461d2cb2-6415-4224-bb7d-17eb418113a9,pilot_7,GGR_VLAT,sona,survey,976097.599999994,1008451.099999994,32354,"{""TechnicalDifficultiesFreeResp"":"""",""participantAge"":""2000"",""participantYears"":""22"",""participantEd_field"":""Psychology"",""participantComments"":""""}",,survey-text,74,1006762,0.0-74.0,,
62882679e90286112039fa6a,4668-516424c7-c770-406a-a447-f1676211d6de,pilot_7,GGR_VLAT,sona,survey,19999.199999999255,31967.199999999255,11968,"{""Q0"":""sahoffma@ucsd.edu""}",sahoffma@ucsd.edu,survey-text,1,30292,0.0-1.0,,
62882adde90286112039fa9d,1167-acce2a57-f645-4a8b-9014-3048542dd8fe,pilot_7,GGR_VLAT,sona,survey,9588.299999952316,18452.699999809265,8864,"{""Q0"":""w4li@ucsd.edu""}",w4li@ucsd.edu,survey-text,1,13536,0.0-1.0,,
62882c1be90286112039fabe,4668-516424c7-c770-406a-a447-f1676211d6de,pilot_7,GGR_VLAT,sona,survey,,,16844,,,survey-multi-choice,72,1471844,0.0-72.0,"{""participantSex"":""Female"",""participantEd"":""Bachelor's degree"",""judgedDifficulty"":""2"",""participantEffort"":""I tried my best on each question"",""technicalDifficultiesBinary"":""No""}","[0,1,2,3,4]"
62882c22e90286112039fabf,4668-516424c7-c770-406a-a447-f1676211d6de,pilot_7,GGR_VLAT,sona,survey,,,7327,,,survey-multi-select,73,1479180,0.0-73.0,"{""participantEd_math"":["" Algebra"","" Statistics""]}",[0]
62882c3fe90286112039fac1,4668-516424c7-c770-406a-a447-f1676211d6de,pilot_7,GGR_VLAT,sona,survey,1480814.0,1509283.8999999985,28470,"{""TechnicalDifficultiesFreeResp"":"""",""participantAge"":""2000"",""participantYears"":""21"",""participantEd_field"":""Psychology"",""participantComments"":""I had a lot of fun!""}",,survey-text,74,1507658,0.0-74.0,,
628830ece90286112039faf3,1167-acce2a57-f645-4a8b-9014-3048542dd8fe,pilot_7,GGR_VLAT,sona,survey,,,21417,,,survey-multi-choice,72,1564604,0.0-72.0,"{""participantSex"":""Male"",""participantEd"":""High school graduate, diploma or equivalent"",""judgedDifficulty"":""5"",""participantEffort"":""I tried my best on most questions"",""technicalDifficultiesBinary"":""No""}","[0,1,2,3,4]"
628830f3e90286112039faf4,1167-acce2a57-f645-4a8b-9014-3048542dd8fe,pilot_7,GGR_VLAT,sona,survey,,,6405,,,survey-multi-select,73,1571013,0.0-73.0,"{""participantEd_math"":["" Algebra"","" Calculus"","" Statistics""]}",[0]
62883105e90286112039faf5,1167-acce2a57-f645-4a8b-9014-3048542dd8fe,pilot_7,GGR_VLAT,sona,survey,1575963.5,1593627.7999999523,17664,"{""TechnicalDifficultiesFreeResp"":"""",""participantAge"":""1999"",""participantYears"":""22"",""participantEd_field"":""psychology"",""participantComments"":""""}",,survey-text,74,1588688,0.0-74.0,,
628833aee90286112039faf6,3813-cecc541b-6aa5-4da3-9871-50e1a732720b,pilot_7,GGR_VLAT,sona,survey,6226.399999976158,12008.599999904633,5782,"{""Q0"":""cek002@ucsd.com""}",cek002@ucsd.com,survey-text,1,10206,0.0-1.0,,
628833c1e90286112039faf7,5106-20db3ddf-6834-48eb-958a-91565aaec73f,pilot_7,GGR_VLAT,sona,survey,5451.399999976158,9711.899999976158,4261,"{""Q0"":""cek002@ucsd.edu""}",cek002@ucsd.edu,survey-text,1,8665,0.0-1.0,,
628834f4e90286112039fb3a,5106-20db3ddf-6834-48eb-958a-91565aaec73f,pilot_7,GGR_VLAT,sona,survey,,,26229,,,survey-multi-choice,73,315087,0.0-72.0,"{""participantSex"":""Do Not Wish To Say"",""participantEd"":""Bachelor's degree"",""judgedDifficulty"":""7"",""participantEffort"":""I tried my best on each question"",""technicalDifficultiesBinary"":""No""}","[0,1,2,3,4]"
628834fae90286112039fb3b,5106-20db3ddf-6834-48eb-958a-91565aaec73f,pilot_7,GGR_VLAT,sona,survey,,,6059,,,survey-multi-select,74,321165,0.0-73.0,"{""participantEd_math"":["" Algebra"","" Calculus"","" Statistics""]}",[0]
62883512e90286112039fb3c,5106-20db3ddf-6834-48eb-958a-91565aaec73f,pilot_7,GGR_VLAT,sona,survey,322227.39999997616,346810.0,24583,"{""TechnicalDifficultiesFreeResp"":""i was under stress"",""participantAge"":""2000"",""participantYears"":""21"",""participantEd_field"":""human biology "",""participantComments"":""i had fun!""}",,survey-text,75,345763,0.0-74.0,,
628836f0e90286112039fb3d,1997-b3179889-55e5-4c07-a922-5b5578a29622,pilot_7,GGR_VLAT,sona,survey,14214.40000000596,19394.60000000894,5180,"{""Q0"":""ajliu@ucsd.edu""}",ajliu@ucsd.edu,survey-text,1,18044,0.0-1.0,,
6288370ee90286112039fb3e,3708-1becab96-3254-4f03-bbbb-2aa38ad9e55c,pilot_7,GGR_VLAT,sona,survey,4097.0999999940395,7839.20000000298,3742,"{""Q0"":""ajliu@ucsd.edu""}",ajliu@ucsd.edu,survey-text,1,7273,0.0-1.0,,
6288373de90286112039fb3f,3770-e4e9fcb4-2c46-474f-b1ce-aef4ad253e8f,pilot_7,GGR_VLAT,sona,survey,6699.79999999702,11097.20000000298,4397,"{""Q0"":""ajliu@ucsd.edu""}",ajliu@ucsd.edu,survey-text,1,10599,0.0-1.0,,
62883d25e90286112039fb82,3770-e4e9fcb4-2c46-474f-b1ce-aef4ad253e8f,pilot_7,GGR_VLAT,sona,survey,,,27824,,,survey-multi-choice,72,1523268,0.0-72.0,"{""participantSex"":""Female"",""participantEd"":""High school graduate, diploma or equivalent"",""judgedDifficulty"":""4"",""participantEffort"":""I tried my best on most questions"",""technicalDifficultiesBinary"":""No""}","[0,1,2,3,4]"
62883d2be90286112039fb83,3770-e4e9fcb4-2c46-474f-b1ce-aef4ad253e8f,pilot_7,GGR_VLAT,sona,survey,,,5127,,,survey-multi-select,73,1528410,0.0-73.0,"{""participantEd_math"":["" Algebra"","" Calculus"","" Statistics""]}",[0]
62883d42e90286112039fb84,3770-e4e9fcb4-2c46-474f-b1ce-aef4ad253e8f,pilot_7,GGR_VLAT,sona,survey,1528920.700000003,1552495.299999997,23575,"{""TechnicalDifficultiesFreeResp"":"""",""participantAge"":""2022"",""participantYears"":""19"",""participantEd_field"":""Cognitive Behavioral Neuroscience"",""participantComments"":""""}",,survey-text,74,1551996,0.0-74.0,,
62885166e90286112039fb85,9207-79d58652-1d87-4692-88d9-5f535b9c5aee,pilot_7,GGR_VLAT,sona,survey,5939.399999976158,12835.899999976158,6897,"{""Q0"":""cipeng@ucsd.edu""}",cipeng@ucsd.edu,survey-text,1,11149,0.0-1.0,,
628854c9e90286112039fbc8,9207-79d58652-1d87-4692-88d9-5f535b9c5aee,pilot_7,GGR_VLAT,sona,survey,,,13701,,,survey-multi-choice,72,878225,0.0-72.0,"{""participantSex"":""Female"",""participantEd"":""High school graduate, diploma or equivalent"",""judgedDifficulty"":""3"",""participantEffort"":""I tried my best on most questions"",""technicalDifficultiesBinary"":""No""}","[0,1,2,3,4]"
628854d0e90286112039fbc9,9207-79d58652-1d87-4692-88d9-5f535b9c5aee,pilot_7,GGR_VLAT,sona,survey,,,6674,,,survey-multi-select,73,884903,0.0-73.0,"{""participantEd_math"":["" Algebra"","" Calculus"","" Statistics""]}",[0]
628854e8e90286112039fbca,9207-79d58652-1d87-4692-88d9-5f535b9c5aee,pilot_7,GGR_VLAT,sona,survey,886617.5999999642,910792.1999999881,24175,"{""TechnicalDifficultiesFreeResp"":""n/a"",""participantAge"":""2002"",""participantYears"":""20"",""participantEd_field"":""Psychology and Cognitive Science"",""participantComments"":""I had a lot of fun!""}",,survey-text,74,909083,0.0-74.0,,
62888f81e90286112039fbcb,6564-61af2f79-4a7d-4e02-9863-7eac01af68f9,pilot_7,GGR_VLAT,sona,survey,80346.80000001192,96080.20000000298,15733,"{""Q0"":""vhoang@ucsd.edu""}",vhoang@ucsd.edu,survey-text,1,94624,0.0-1.0,,
628895c8e90286112039fc0e,6564-61af2f79-4a7d-4e02-9863-7eac01af68f9,pilot_7,GGR_VLAT,sona,survey,,,30099,,,survey-multi-choice,72,1700995,0.0-72.0,"{""participantSex"":""Female"",""participantEd"":""Bachelor's degree"",""judgedDifficulty"":""3"",""participantEffort"":""I tried my best on each question"",""technicalDifficultiesBinary"":""No""}","[0,1,2,3,4]"
628895d4e90286112039fc0f,6564-61af2f79-4a7d-4e02-9863-7eac01af68f9,pilot_7,GGR_VLAT,sona,survey,,,12555,,,survey-multi-select,73,1713563,0.0-73.0,"{""participantEd_math"":["" Algebra"","" Calculus"","" Statistics""]}",[0]
62889641e90286112039fc10,6564-61af2f79-4a7d-4e02-9863-7eac01af68f9,pilot_7,GGR_VLAT,sona,survey,1715015.5,1823437.5,108422,"{""TechnicalDifficultiesFreeResp"":""N/A"",""participantAge"":""2001"",""participantYears"":""21"",""participantEd_field"":""Cognitive Science"",""participantComments"":""The bar graphs without lines were hard to decipher, so having my mouse pointer was helpful.""}",,survey-text,74,1821994,0.0-74.0,,
628957a5e90286112039fc11,5091-77bc425d-4e5b-40d9-92e3-f6c7ddb9c875,pilot_7,GGR_VLAT,sona,survey,10665.800000000745,16824.900000002235,6159,"{""Q0"":""ntejuja@ucsd.edu""}",ntejuja@ucsd.edu,survey-text,1,14990,0.0-1.0,,
62895d11e90286112039fc54,5091-77bc425d-4e5b-40d9-92e3-f6c7ddb9c875,pilot_7,GGR_VLAT,sona,survey,,,24771,,,survey-multi-choice,73,1403438,0.0-72.0,"{""participantSex"":""Female"",""participantEd"":""High school graduate, diploma or equivalent"",""judgedDifficulty"":""1"",""participantEffort"":""I tried my best on each question"",""technicalDifficultiesBinary"":""No""}","[0,1,2,3,4]"
62895d19e90286112039fc55,5091-77bc425d-4e5b-40d9-92e3-f6c7ddb9c875,pilot_7,GGR_VLAT,sona,survey,,,7100,,,survey-multi-select,74,1410548,0.0-73.0,"{""participantEd_math"":["" Algebra"","" Calculus"","" Statistics""]}",[0]
62895da5e90286112039fc56,5091-77bc425d-4e5b-40d9-92e3-f6c7ddb9c875,pilot_7,GGR_VLAT,sona,survey,1412363.8000000007,1552939.4000000022,140576,"{""TechnicalDifficultiesFreeResp"":""no "",""participantAge"":""2001"",""participantYears"":""21"",""participantEd_field"":""cognitive science "",""participantComments"":""I did actually have fun! thank you. I'm also very interested in data visualization and misleading information/graphs.\nI would like to get more info on this study or my results if that were to ever be possible. thanks (ntejuja@ucsd.edu)""}",,survey-text,75,1551136,0.0-74.0,,
62895ed6e90286112039fc57,0089-0390d2c1-61ab-4064-9069-0ebe149453d0,pilot_7,GGR_VLAT,sona,survey,17277.900000095367,28081.60000014305,10804,"{""Q0"":""dtestini@ucsd.edu""}",dtestini@ucsd.edu,survey-text,1,26979,0.0-1.0,,
62896242e90286112039fc87,8530-93697b74-59ed-4bf1-878f-386bfebf9589,pilot_7,GGR_VLAT,sona,survey,17691.200000047684,35391.90000009537,17701,"{""Q0"":""shz062@ucsd.edu""}",shz062@ucsd.edu,survey-text,1,34458,0.0-1.0,,
62896252e90286112039fc89,6507-59c72d7c-accb-4dbe-bfa8-7b4ee6863446,pilot_7,GGR_VLAT,sona,survey,4102.699999988079,9481.400000035763,5379,"{""Q0"":""y5zhong@ucsd.edu""}",y5zhong@ucsd.edu,survey-text,1,8566,0.0-1.0,,
628963afe90286112039fcb9,0089-0390d2c1-61ab-4064-9069-0ebe149453d0,pilot_7,GGR_VLAT,sona,survey,,,37150,,,survey-multi-choice,72,1267386,0.0-72.0,"{""participantSex"":""Male"",""participantEd"":""Bachelor's degree"",""judgedDifficulty"":""3"",""participantEffort"":""I tried my best on each question"",""technicalDifficultiesBinary"":""No""}","[0,1,2,3,4]"
628963b7e90286112039fcbb,0089-0390d2c1-61ab-4064-9069-0ebe149453d0,pilot_7,GGR_VLAT,sona,survey,,,8494,,,survey-multi-select,73,1275931,0.0-73.0,"{""participantEd_math"":["" Algebra"","" Calculus"","" Statistics""]}",[0]
628963c6e90286112039fcbc,0089-0390d2c1-61ab-4064-9069-0ebe149453d0,pilot_7,GGR_VLAT,sona,survey,1277054.8000001907,1292077.8000001907,15023,"{""TechnicalDifficultiesFreeResp"":"""",""participantAge"":""2003"",""participantYears"":""19"",""participantEd_field"":""Data Science"",""participantComments"":""""}",,survey-text,74,1290970,0.0-74.0,,
